t,roll,pitch,yaw,ax,ay,az,gx,gy,gz
0.000000,54.149,24.990,-10.456,0.0428,-0.0235,0.3435,0.000,0.000,0.000
0.016667,54.682,25.320,-10.427,0.2696,0.0214,0.9828,33.337,12.357,-18.753
0.033334,55.153,25.388,-10.306,0.1966,0.0310,0.8751,23.509,12.544,-18.109
0.050001,55.497,25.467,-10.095,-0.0387,0.1750,0.5194,14.477,13.317,-16.831
0.066668,55.811,25.713,-9.817,-0.2493,0.3188,0.2640,8.887,13.640,-14.739
0.083335,56.188,26.084,-9.546,-0.3957,0.4302,0.0093,9.940,12.264,-13.048
0.100002,56.701,26.508,-9.292,-0.4647,0.4175,-0.2680,17.393,9.352,-12.012
0.116669,57.384,26.942,-9.153,-0.4925,0.3166,-0.4980,29.879,5.582,-12.512
0.133336,58.235,27.371,-9.101,-0.5215,0.2219,-0.6106,44.369,1.379,-14.326
0.150003,59.234,27.804,-9.256,-0.4563,0.1785,-0.4465,58.265,-2.695,-17.433
0.166670,60.398,28.227,-9.539,-0.3893,0.1517,-0.2130,73.263,-8.008,-20.882
0.183337,61.685,28.635,-9.944,-0.3119,0.2624,-0.1229,85.302,-13.324,-23.891
0.200004,62.872,29.042,-10.425,0.0788,0.1121,0.3848,82.018,-16.666,-26.468
0.216671,63.795,29.405,-10.899,0.4051,0.2615,0.7768,66.513,-16.534,-25.649
0.233338,64.374,29.745,-11.370,0.5723,0.4556,0.5799,45.825,-16.271,-26.486
0.250005,64.668,30.066,-11.844,0.5213,0.5078,0.1143,28.343,-16.497,-27.424
0.266672,64.808,30.353,-12.324,0.5384,0.5797,-0.2847,18.985,-17.358,-26.792
0.283339,64.933,30.607,-12.836,0.5003,0.4454,-0.5531,18.809,-19.593,-26.534
0.300006,65.092,30.832,-13.384,0.5054,0.4005,-0.5864,22.097,-21.804,-26.223
0.316673,65.266,31.040,-13.968,0.5328,0.4810,-0.4576,24.216,-23.728,-26.239
0.333340,65.460,31.249,-14.612,0.4685,0.4743,-0.3716,27.429,-26.430,-27.769
0.350007,65.705,31.472,-15.340,0.3405,0.3975,-0.3809,33.247,-29.971,-30.308
0.366674,65.984,31.696,-16.168,0.3622,0.2933,-0.3239,38.830,-34.656,-32.127
0.383341,66.284,31.906,-17.094,0.3264,0.4047,-0.2612,43.545,-39.542,-33.093
0.400008,66.629,32.099,-18.117,0.1220,0.5818,-0.4377,49.645,-44.546,-33.705
0.416675,67.059,32.265,-19.228,-0.0965,0.7002,-0.5995,57.747,-49.532,-33.354
0.433342,67.531,32.412,-20.433,-0.0892,0.8461,-0.5298,63.400,-54.705,-33.204
0.450009,68.075,32.545,-21.746,-0.0247,0.9407,-0.5954,71.455,-60.549,-33.600
0.466676,68.805,32.710,-23.220,-0.1716,0.6745,-0.8632,87.833,-67.805,-37.283
0.483343,69.881,32.944,-24.920,-0.7410,0.4279,-1.5123,116.341,-77.537,-43.725
0.500010,71.157,33.283,-26.862,-1.1699,0.1217,-1.7281,137.074,-87.470,-51.380
0.516677,72.692,33.812,-29.068,-1.7980,0.2846,-1.6900,162.759,-97.154,-63.363
0.533344,74.408,34.612,-31.629,-2.6078,0.6998,-2.3252,187.442,-110.212,-80.015
0.550011,76.155,35.580,-34.413,-1.7990,0.4114,-1.9405,199.541,-119.226,-87.680
0.566678,78.207,36.695,-37.472,-1.4351,-0.0601,-1.2355,230.580,-131.120,-94.355
0.583345,79.669,37.984,-40.827,-1.1848,-0.9823,-0.5522,209.577,-143.173,-102.507
0.600012,79.621,39.525,-44.259,-0.7844,-1.7233,-0.1280,126.550,-141.685,-115.946
0.616679,77.699,41.292,-47.623,0.8421,-1.9598,0.8787,16.601,-129.574,-130.799
0.633346,74.157,43.231,-50.880,1.5913,-1.4507,0.9441,-79.775,-111.404,-145.668
0.650013,70.121,45.172,-54.010,0.7903,-1.0293,0.4758,-110.089,-91.775,-150.693
0.666680,66.373,46.909,-56.880,-0.0326,-1.3052,0.6018,-99.849,-71.648,-140.195
0.683347,62.995,48.363,-59.363,1.0179,-1.4353,1.6602,-91.582,-52.435,-121.178
0.700014,60.344,49.429,-61.382,2.6472,-1.2296,3.4578,-66.854,-38.611,-94.012
0.716681,58.687,50.295,-62.450,7.3364,1.7569,2.7546,-49.910,-8.152,-66.385
0.733348,57.382,51.203,-62.603,5.0800,2.3210,2.7288,-71.987,23.934,-51.103
0.750015,55.803,52.208,-62.542,0.2907,0.7455,2.8887,-99.240,34.286,-51.515
0.766682,53.290,53.288,-62.419,-1.6710,-2.9145,3.1654,-158.217,40.325,-52.419
0.783349,50.702,54.335,-62.473,-1.6168,-3.2839,3.0388,-153.653,37.105,-52.824
0.800016,49.063,55.133,-62.513,0.4159,-1.3637,0.4934,-96.944,30.524,-39.511
0.816683,48.246,55.673,-63.268,0.7988,-2.1140,0.4140,-12.170,3.036,-43.427
0.833350,47.694,55.974,-64.060,0.0959,-2.3483,-0.3693,5.775,-6.508,-33.557
0.850017,46.160,56.339,-64.381,5.7898,-3.6132,-0.3461,-76.310,8.673,-25.667
0.866684,44.747,56.804,-64.791,-0.0915,-0.3958,-2.6279,-64.887,11.842,-32.799
0.883351,43.989,57.253,-64.978,0.2068,-0.7589,-1.2912,-36.651,16.911,-26.390
0.900018,43.732,57.651,-64.799,1.2113,-1.1389,-0.4513,-25.005,23.172,-15.480
0.916685,43.691,58.080,-64.370,1.1592,-1.1344,0.6973,-24.708,30.034,-11.084
0.933352,43.724,58.541,-63.752,0.2875,-1.1842,1.2737,-30.109,35.558,-8.287
0.950019,44.001,58.931,-62.921,-0.1001,-1.2434,1.3970,-26.375,36.910,-0.741
0.966686,44.412,59.200,-62.068,-0.1301,-1.2329,1.3541,-19.580,32.171,4.556
0.983353,44.696,59.418,-61.297,0.3622,-1.3402,1.1799,-22.888,28.177,4.690
1.000020,44.957,59.617,-60.581,-0.2183,-0.5953,0.1558,-21.494,26.288,4.091
1.016687,45.389,59.821,-59.840,0.0912,-0.0387,-0.5082,-12.483,26.882,4.361
1.033354,45.983,60.048,-59.054,-0.0571,0.1624,-0.6058,-5.169,28.750,4.085
1.050021,46.645,60.315,-58.232,-0.4593,-0.0865,-0.3379,-3.076,31.004,2.802
1.066688,47.210,60.641,-57.444,-0.5970,-0.2513,0.0237,-7.170,32.496,-0.774
1.083355,47.368,61.036,-56.799,0.0174,-0.3656,0.3304,-24.169,31.997,-6.835
1.100022,47.234,61.517,-56.269,-0.4137,-0.0627,0.2956,-35.739,32.871,-13.005
1.116689,47.015,62.051,-55.771,-0.4995,0.2001,0.2206,-39.323,34.180,-15.844
1.133356,46.817,62.619,-55.239,-0.1173,0.2820,0.3365,-39.914,36.059,-16.612
1.150023,46.728,63.218,-54.575,-0.3059,0.3147,0.0963,-40.570,39.692,-15.496
1.166690,46.708,63.806,-53.849,-0.1650,0.0655,-0.0279,-39.969,40.126,-13.981
1.183357,46.594,64.404,-53.076,0.4010,-0.2259,-0.0135,-48.323,41.105,-13.694
1.200024,46.375,64.994,-52.219,-0.0110,-0.0525,-0.1047,-59.386,42.031,-12.028
1.216691,46.166,65.546,-51.292,-0.4166,0.2077,-0.2037,-62.787,41.396,-9.285
1.233358,45.982,66.029,-50.520,-0.7828,0.3368,-0.2901,-53.011,35.464,-9.039
1.250025,45.854,66.468,-49.873,-0.3913,0.1248,-0.3682,-42.960,31.128,-9.214
1.266692,45.517,66.923,-49.322,0.4136,0.0723,-0.1463,-50.337,29.975,-11.464
1.283359,44.997,67.343,-48.924,-0.1602,0.0711,-0.2113,-52.931,25.824,-12.428
1.300026,44.465,67.697,-48.653,0.3581,-0.5051,0.1067,-46.676,20.911,-11.541
1.316693,44.170,67.924,-48.493,-0.9662,-0.4806,-0.4977,-26.326,13.780,-7.961
1.333360,44.468,67.951,-48.408,-0.5452,-0.3081,-0.7886,13.438,3.964,-0.644
1.350027,45.115,67.872,-48.302,0.7046,-0.1224,-0.8792,33.329,-0.223,4.175
1.366694,45.982,67.787,-48.096,0.4683,0.3899,-1.0100,40.846,1.229,5.977
1.383361,46.822,67.737,-47.820,0.5313,0.4011,-0.7403,35.368,3.823,5.533
1.400028,47.519,67.733,-47.470,0.6381,0.4560,-0.4184,22.586,6.965,4.586
1.416695,48.159,67.726,-47.079,0.2837,0.3801,-0.1554,16.944,7.498,5.253
1.433362,48.826,67.691,-46.699,0.1375,0.3767,0.0752,19.103,6.262,6.245
1.450029,49.521,67.615,-46.360,0.1321,0.3402,0.1475,23.093,3.949,7.474
1.466696,50.241,67.518,-46.064,0.0210,0.2849,0.1440,26.980,2.432,7.794
1.483363,50.821,67.445,-45.820,-0.0430,0.3382,0.0343,21.429,2.529,5.925
1.500030,51.177,67.439,-45.571,0.0615,0.4162,-0.1138,7.777,5.167,2.858
1.516697,51.394,67.479,-45.289,-0.1530,0.4817,-0.2134,-2.534,7.463,1.204
1.533364,51.562,67.534,-45.003,-0.2356,0.4409,-0.1108,-5.568,8.005,0.553
1.550031,51.710,67.578,-44.778,-0.4044,0.4886,-0.1016,-3.483,6.455,0.238
1.566698,51.977,67.573,-44.603,-0.5256,0.5058,-0.1677,6.516,3.703,1.804
1.583365,52.255,67.574,-44.438,-0.1268,0.1034,0.0304,7.617,3.709,1.478
1.600032,52.320,67.622,-44.248,-0.0696,0.0513,0.1153,-6.501,5.850,-0.372
1.616699,52.353,67.673,-44.044,-0.3159,0.1146,0.0599,-9.231,6.231,-0.370
1.633366,52.409,67.708,-43.859,-0.1813,0.0232,0.1558,-6.767,5.242,0.184
1.650033,52.416,67.728,-43.738,-0.3172,0.0586,0.0810,-6.124,3.544,0.025
1.666700,52.474,67.725,-43.688,-0.4055,0.2323,-0.1887,0.832,1.440,0.134
1.683367,52.582,67.720,-43.689,-0.2328,0.2842,-0.1813,6.728,0.403,-0.424
1.700034,52.658,67.715,-43.734,-0.3437,0.2170,-0.2240,7.171,-0.431,-0.987
1.716701,52.669,67.710,-43.841,-0.2262,0.0521,-0.1381,6.718,-1.560,-1.804
1.733368,52.627,67.699,-43.972,-0.2313,-0.0174,-0.0530,4.941,-2.207,-1.863
1.750035,52.549,67.690,-44.115,-0.0888,-0.0306,0.1014,3.400,-2.369,-2.079
1.766702,52.493,67.667,-44.277,-0.1201,-0.0127,0.1196,5.729,-3.236,-1.667
1.783369,52.555,67.607,-44.461,-0.1887,0.1007,-0.1109,14.150,-5.007,-0.208
1.800036,52.677,67.536,-44.633,0.1056,0.0369,-0.0934,16.993,-5.177,0.493
1.816703,52.709,67.466,-44.771,0.0763,-0.0778,-0.0196,9.714,-4.523,0.873
1.833370,52.654,67.406,-44.858,0.0718,-0.0070,0.0741,1.689,-3.258,1.127
1.850037,52.756,67.310,-44.868,0.0777,0.1598,0.2385,6.818,-3.162,3.940
1.866704,53.082,67.178,-44.859,0.1970,0.2578,0.3478,19.181,-4.107,5.915
1.883371,53.546,67.040,-44.759,0.0924,0.2688,0.2028,22.453,-2.597,7.500
1.900038,54.003,66.909,-44.562,-0.0128,0.3474,0.0450,16.654,-0.461,8.559
1.916705,54.410,66.804,-44.306,-0.2605,0.4934,-0.0532,10.490,1.613,8.121
1.933372,54.776,66.718,-44.059,-0.4015,0.4842,-0.1407,8.404,2.182,7.080
1.950039,55.010,66.681,-43.839,-0.3075,0.4291,-0.0913,2.045,3.363,4.363
1.966706,55.224,66.670,-43.664,-0.4759,0.5281,-0.1661,3.273,3.379,2.493
1.983373,55.464,66.665,-43.537,-0.4078,0.3540,-0.0627,7.519,2.599,1.584
2.000040,55.665,66.664,-43.480,-0.2998,0.2339,-0.0197,9.007,1.359,0.478
2.016707,55.757,66.671,-43.471,-0.0503,0.1678,-0.0821,5.154,0.671,-0.565
2.033374,55.807,66.670,-43.470,-0.0931,0.3204,-0.1551,3.027,0.277,-0.277
2.050041,55.908,66.638,-43.492,-0.0295,0.3484,-0.3630,7.397,-1.313,1.011
2.066708,56.018,66.585,-43.510,0.1890,0.0380,-0.1914,7.718,-1.914,2.090
2.083375,56.112,66.504,-43.547,-0.0208,0.0468,-0.2270,7.728,-3.226,3.230
2.100042,56.120,66.393,-43.637,0.2199,-0.0450,-0.0829,5.522,-5.285,3.968
2.116709,56.070,66.248,-43.836,0.0900,0.1097,-0.1842,8.017,-8.621,4.222
2.133376,56.048,66.051,-44.137,0.0696,0.2022,-0.2535,15.329,-12.453,5.383
2.150043,56.055,65.834,-44.474,0.1386,0.2040,-0.1880,18.934,-13.909,5.871
2.166710,55.987,65.607,-44.859,0.2026,0.0831,-0.0560,17.071,-15.324,5.638
2.183377,55.900,65.363,-45.275,0.1954,0.1594,0.0138,17.532,-16.618,5.975
2.200044,55.808,65.092,-45.744,0.1667,0.2320,0.0947,20.143,-18.717,6.464
2.216711,55.703,64.782,-46.253,0.0275,0.2255,0.0121,21.349,-21.008,7.752
2.233378,55.508,64.467,-46.726,0.2132,0.2494,-0.0474,13.970,-20.575,8.342
2.250045,55.296,64.134,-47.191,-0.1238,0.5410,-0.3657,12.500,-21.183,9.190
2.266712,55.084,63.797,-47.677,-0.0043,0.4289,-0.2710,13.522,-21.965,8.916
2.283379,54.751,63.463,-48.221,-0.2331,0.4328,-0.1487,9.298,-23.321,7.731
2.300046,54.476,63.108,-48.857,-0.4580,0.5682,-0.2207,17.604,-26.311,7.141
2.316713,54.325,62.723,-49.593,-0.4872,0.5818,-0.2466,30.245,-29.758,6.762
2.333380,54.133,62.329,-50.445,-0.2941,0.3123,0.0290,33.880,-32.971,5.155
2.350047,53.871,61.943,-51.387,-0.3941,0.3896,0.1410,34.244,-34.999,2.997
2.366714,53.657,61.552,-52.402,-0.4978,0.4241,0.1085,40.841,-37.159,1.698
2.383381,53.444,61.158,-53.466,-0.3398,0.3962,0.0654,43.297,-38.708,0.669
2.400048,53.334,60.747,-54.538,-0.4417,0.6065,-0.1501,49.681,-39.850,1.091
2.416715,53.380,60.315,-55.572,-0.3655,0.7099,-0.2724,56.816,-40.017,2.481
2.433382,53.416,59.900,-56.544,-0.1345,0.4657,-0.0582,52.760,-38.323,2.641
2.450049,53.352,59.502,-57.422,-0.2092,0.5217,-0.0907,41.715,-35.713,3.302
2.466716,53.411,59.086,-58.191,-0.3160,0.7539,-0.1025,43.233,-33.965,6.017
2.483383,53.585,58.653,-58.869,-0.2960,0.6725,0.0377,45.345,-32.522,8.383
2.500050,53.759,58.225,-59.470,-0.2754,0.6039,0.0509,41.204,-30.634,9.595
2.516717,53.825,57.807,-60.023,-0.3834,0.6100,0.1135,32.096,-29.209,9.995
2.533384,53.856,57.374,-60.562,-0.5897,0.7015,-0.0430,29.239,-29.577,10.882
2.550051,53.813,56.921,-61.098,-0.5718,0.6741,-0.1644,24.510,-30.393,11.865
2.566718,53.741,56.449,-61.620,-0.6661,0.8222,-0.3659,21.932,-30.876,12.904
2.583385,53.712,55.947,-62.174,-0.7452,1.0251,-0.4519,25.990,-33.055,13.640
2.600052,53.800,55.426,-62.725,-0.7170,0.9831,-0.4020,32.612,-33.836,14.581
2.616719,53.934,54.926,-63.255,-0.8701,0.7283,-0.1742,34.252,-32.758,13.953
2.633386,53.901,54.450,-63.790,-0.9399,0.2965,0.2495,24.335,-32.175,12.612
2.650053,53.739,53.990,-64.374,-0.9015,0.2809,0.5824,18.874,-33.191,10.729
2.666720,53.508,53.532,-65.022,-0.9146,0.1806,0.7313,17.672,-35.142,9.071
2.683387,53.207,53.086,-65.755,-0.8779,0.1105,0.5108,17.398,-37.410,6.424
2.700054,52.964,52.647,-66.549,-0.8314,0.3679,-0.1838,23.623,-39.148,4.455
2.716721,52.769,52.224,-67.378,-0.6181,0.3290,-0.4362,28.025,-39.812,2.602
2.733388,52.544,51.825,-68.236,-0.4900,0.1751,-0.5269,27.362,-40.009,0.545
2.750055,52.315,51.452,-69.098,-0.3096,0.0035,-0.2207,27.147,-39.385,-1.074
2.766722,52.083,51.126,-69.924,-0.3037,-0.3270,0.3303,25.072,-36.756,-2.827
2.783389,51.793,50.883,-70.688,-0.1425,-0.7646,0.5724,18.553,-31.930,-5.558
2.800056,51.499,50.713,-71.408,-0.1678,-0.9210,0.4270,16.150,-27.919,-8.236
2.816723,51.290,50.617,-72.074,0.0966,-1.1118,0.5587,18.774,-23.542,-10.641
2.833390,51.242,50.603,-72.671,0.2157,-1.1118,0.3972,25.215,-18.374,-12.903
2.850057,51.329,50.660,-73.237,0.3038,-1.2637,0.3750,31.864,-14.716,-15.585
2.866724,51.464,50.756,-73.822,0.2676,-1.2239,0.2044,35.651,-13.743,-17.860
2.883391,51.596,50.876,-74.447,0.3603,-1.1609,0.1420,37.330,-13.957,-19.917
2.900058,51.739,51.001,-75.105,0.3041,-0.9523,0.1299,39.625,-14.716,-20.965
2.916725,51.827,51.169,-75.762,0.6418,-1.1169,0.3209,36.278,-12.993,-22.897
2.933392,51.981,51.375,-76.378,0.4440,-0.5752,-0.1496,38.501,-10.377,-23.707
2.950059,52.277,51.587,-76.934,0.3146,-0.5477,-0.1731,44.142,-8.337,-22.555
2.966726,52.550,51.811,-77.404,0.3505,-0.8250,0.1884,38.919,-5.400,-21.168
2.983393,52.769,52.037,-77.808,0.1435,-0.6056,0.1618,32.513,-3.316,-19.720
3.000060,52.915,52.267,-78.164,0.0742,-0.6760,0.1209,25.948,-1.814,-18.823
3.016727,52.977,52.511,-78.470,0.3476,-0.9257,0.0771,18.563,0.237,-18.356
3.033394,53.226,52.731,-78.719,0.1252,-0.3990,-0.4530,27.100,1.053,-15.975
3.050061,53.698,52.917,-78.889,-0.0061,-0.6030,-0.1622,36.732,2.102,-12.653
3.066728,54.231,53.077,-78.977,-0.0979,-0.5911,0.0657,36.523,3.515,-9.665
3.083395,54.744,53.219,-78.973,-0.2221,-0.3801,0.0666,30.889,5.483,-6.874
3.100062,55.219,53.351,-78.855,-0.2463,-0.1104,0.1616,23.137,8.471,-4.109
3.116729,55.709,53.481,-78.636,-0.2237,0.2419,-0.0287,19.091,11.371,-2.018
3.133396,56.181,53.621,-78.309,-0.1522,0.4090,-0.1818,12.868,14.820,-0.462
3.150063,56.635,53.782,-77.887,-0.0942,0.5159,-0.1635,7.185,18.281,0.201
3.166730,57.111,53.960,-77.390,-0.1892,0.6982,-0.2689,4.740,21.008,0.662
3.183397,57.601,54.138,-76.836,-0.2958,0.4656,0.1715,2.790,22.598,1.575
3.200064,58.052,54.320,-76.272,-0.4234,0.3383,0.2689,-0.053,22.908,1.365
3.216731,58.463,54.487,-75.732,-0.4439,0.3586,-0.0866,-1.423,21.709,1.511
3.233398,58.857,54.638,-75.189,-0.3053,0.3343,-0.2056,-2.578,21.202,2.185
3.250065,59.242,54.802,-74.649,-0.2586,0.3062,-0.1866,-3.057,21.490,1.347
3.266732,59.625,54.994,-74.102,-0.1265,0.1789,-0.2824,-3.557,22.440,-0.144
3.283399,59.979,55.200,-73.571,-0.2099,-0.0545,-0.1641,-4.561,22.315,-1.334
3.300066,60.348,55.393,-73.048,-0.1911,-0.2137,-0.0870,-3.313,21.596,-0.998
3.316733,60.830,55.557,-72.542,-0.0993,-0.2494,-0.0359,4.189,20.189,0.052
3.333400,61.440,55.684,-72.045,-0.0328,-0.3575,0.0364,12.260,18.794,1.641
3.350067,62.085,55.785,-71.520,-0.2051,-0.4555,0.1350,13.022,18.882,3.195
3.366734,62.731,55.881,-70.867,-0.0525,-0.3746,0.1651,6.707,22.551,5.195
3.383401,63.412,55.989,-70.075,-0.0060,-0.1180,0.1191,1.789,27.087,6.425
3.400068,64.220,56.132,-69.112,-0.0773,0.0431,0.0922,0.841,33.132,6.713
3.416735,65.176,56.328,-67.967,-0.1729,0.2021,0.2400,0.545,39.955,5.808
3.433402,66.219,56.585,-66.667,-0.3103,0.1702,0.2467,-2.071,46.030,3.781
3.450069,67.288,56.889,-65.259,-0.4209,0.2839,0.2255,-6.267,50.173,1.723
3.466736,68.402,57.211,-63.823,-0.4396,0.4637,0.1816,-5.168,51.070,0.004
3.483403,69.595,57.490,-62.352,-0.3084,0.4078,0.2301,-2.413,50.838,1.610
3.500070,70.869,57.736,-60.836,-0.4702,0.2803,0.4320,-0.088,51.211,2.827
3.516737,72.076,57.969,-59.278,-0.5466,0.3809,0.3998,-6.374,51.934,2.858
3.533404,73.190,58.184,-57.663,-0.4948,0.5517,0.1219,-15.096,53.107,3.286
3.550071,74.221,58.383,-56.004,-0.4261,0.3864,0.0751,-22.577,53.927,3.552
3.566738,75.223,58.565,-54.306,-0.5075,0.7007,-0.0775,-26.436,54.601,3.850
3.583405,76.247,58.720,-52.610,-0.3143,0.9364,0.0498,-25.177,53.934,4.418
3.600072,77.367,58.851,-50.839,-0.3738,0.8363,0.0602,-23.400,55.648,5.387
3.616739,78.558,58.970,-48.982,-0.7564,0.6614,0.3423,-23.721,58.006,5.474
3.633406,79.757,59.103,-47.051,-0.5200,0.8610,0.2169,-27.177,60.236,3.900
3.650073,80.854,59.300,-45.116,-0.2196,0.7779,0.2600,-33.650,60.775,-1.101
3.666740,81.779,59.549,-43.115,-0.5931,0.9679,0.3344,-47.676,62.785,-5.008
3.683407,82.706,59.813,-41.048,-0.6201,0.7354,0.6816,-51.299,64.281,-6.583
3.700074,83.665,60.058,-39.071,-0.8159,0.5717,0.6837,-44.947,60.848,-6.910
3.716741,84.557,60.286,-37.192,-0.4366,0.1704,0.9382,-44.127,57.245,-7.185
3.733408,85.211,60.501,-35.489,-0.3331,-0.0102,0.6199,-49.414,51.487,-7.675
3.750075,85.630,60.720,-33.915,-0.1221,-0.3460,0.4091,-57.044,47.311,-8.684
3.766742,85.972,60.905,-32.571,-0.2093,-0.2583,0.1643,-49.709,40.082,-7.488
3.783409,86.398,61.011,-31.380,-0.1295,-0.3864,-0.0127,-36.794,35.097,-3.344
3.800076,86.999,61.029,-30.270,0.0993,-0.4635,-0.1572,-22.097,32.372,1.448
3.816743,87.754,60.987,-29.229,0.3489,-0.6029,-0.3641,-9.178,30.209,4.553
3.833410,88.618,60.873,-28.203,0.3974,-0.7468,-0.7981,-1.770,29.784,8.375
3.850077,89.310,60.727,-27.090,0.8284,-1.2108,-1.0045,-16.692,32.555,9.927
3.866744,89.762,60.590,-25.852,0.6524,-0.8770,-1.4582,-37.405,36.482,9.042
3.883411,90.199,60.450,-24.556,0.5855,-0.2201,-1.1873,-41.353,38.461,8.884
3.900078,90.825,60.310,-23.205,0.9569,0.5776,-1.0932,-32.748,40.326,8.477
3.916745,91.605,60.184,-21.876,0.8778,0.5348,-0.7231,-22.309,39.845,7.068
3.933412,92.405,60.041,-20.594,0.5550,0.1877,-0.6492,-18.579,38.718,7.638
3.950079,93.088,59.896,-19.305,0.6931,-0.3107,-0.4221,-25.859,39.158,7.117
3.966746,93.645,59.756,-18.055,0.4849,-0.1776,-0.3166,-31.318,38.214,6.492
3.983413,94.172,59.593,-16.933,0.4335,-0.1294,-0.2105,-26.358,34.646,7.670
4.000080,94.673,59.420,-15.924,0.6460,-0.1875,0.0605,-21.953,31.506,8.241
4.016747,95.128,59.216,-15.056,0.5727,-0.1394,0.1085,-17.383,27.611,10.151
4.033414,95.540,58.986,-14.299,0.6099,-0.2454,0.0772,-14.146,24.588,11.744
4.050081,95.834,58.754,-13.610,0.7010,-0.2945,0.0715,-17.696,22.743,11.859
4.066748,96.022,58.531,-13.007,0.4909,-0.0840,0.0621,-19.476,20.183,11.486
4.083415,96.159,58.304,-12.514,0.5632,-0.0247,0.3025,-16.886,16.937,11.976
4.100082,96.307,58.078,-12.147,0.3672,0.2354,0.3231,-9.690,13.082,12.247
4.116749,96.425,57.845,-11.913,0.4436,0.2778,0.3364,-4.739,9.029,13.151
4.133416,96.435,57.626,-11.768,0.4244,0.2817,0.2053,-6.627,6.134,12.561
4.150083,96.387,57.420,-11.685,0.1940,0.4789,0.0006,-7.021,4.102,12.006
4.166750,96.367,57.219,-11.660,0.1183,0.6197,-0.0417,-2.389,2.163,11.907
4.183417,96.377,57.036,-11.677,0.0567,0.6699,0.0464,1.557,0.666,10.975
4.200084,96.387,56.881,-11.696,0.0374,0.6981,-0.0310,1.615,0.369,9.291
4.216751,96.338,56.756,-11.721,-0.0575,0.6887,-0.1543,-1.629,-0.021,7.594
4.233418,96.240,56.657,-11.746,-0.0853,0.7311,-0.2091,-4.615,-0.249,5.990
4.250085,96.142,56.582,-11.780,-0.0905,0.8266,-0.1222,-4.111,-0.730,4.632
4.266752,96.090,56.529,-11.828,-0.0615,0.7772,-0.0425,-0.713,-1.358,3.415
4.283419,96.081,56.495,-11.889,0.0474,0.7140,0.0071,2.480,-1.918,2.316
4.300086,96.117,56.472,-11.967,0.1068,0.6476,0.0230,6.072,-2.610,1.696
4.316753,96.136,56.461,-12.053,0.2148,0.5505,0.1049,5.378,-2.946,1.023
4.333420,96.101,56.450,-12.137,0.2405,0.4818,0.1305,2.106,-2.902,1.000
4.350087,96.047,56.435,-12.223,0.2351,0.5374,0.1989,1.007,-2.976,1.285
4.366754,96.008,56.412,-12.324,0.1995,0.7111,0.1807,2.666,-3.421,1.772
4.383421,96.056,56.369,-12.421,0.1131,0.7937,0.1280,7.620,-3.184,2.908
4.400088,96.144,56.313,-12.514,0.2001,0.6268,0.1210,9.844,-2.998,3.751
4.416755,96.247,56.268,-12.523,0.3196,0.4996,0.0743,6.618,-0.323,2.787
4.433422,96.325,56.235,-12.492,0.2384,0.6160,-0.0306,2.992,0.919,1.863
4.450089,96.409,56.201,-12.472,0.2838,0.6237,-0.0570,3.920,0.582,2.007
4.466756,96.518,56.146,-12.466,0.2692,0.5819,-0.0914,6.169,0.213,3.322
4.483423,96.603,56.065,-12.492,0.3043,0.4883,-0.0496,6.271,-0.689,4.973
4.500090,96.663,55.963,-12.533,0.3292,0.5290,-0.0777,5.535,-1.036,6.277
4.516757,96.738,55.832,-12.617,0.3072,0.5350,-0.0342,8.507,-2.279,8.169
4.533424,96.826,55.676,-12.713,0.2896,0.4239,0.1351,9.903,-2.525,9.693
4.550091,96.886,55.486,-12.834,0.2061,0.4370,0.1754,9.475,-3.154,11.828
4.566758,96.989,55.258,-12.942,0.1128,0.4987,0.1119,11.323,-2.415,14.061
4.583425,97.134,54.990,-13.042,0.0362,0.5237,-0.0107,13.474,-1.889,16.374
4.600092,97.260,54.707,-13.116,-0.0014,0.5109,-0.0812,10.973,-0.855,17.209
4.616759,97.355,54.415,-13.167,-0.1969,0.5698,-0.1606,8.038,0.025,17.629
4.633426,97.361,54.130,-13.184,-0.2572,0.4664,-0.1537,1.002,1.137,17.100
4.650093,97.264,53.874,-13.135,-0.2888,0.3897,-0.0796,-8.412,3.209,15.086
4.666760,97.163,53.652,-13.042,-0.4334,0.5199,-0.0908,-10.778,4.479,12.836
4.683427,97.153,53.458,-12.932,-0.4332,0.5376,0.0350,-6.088,4.858,11.180
4.700094,97.268,53.286,-12.798,-0.4199,0.2920,0.0965,0.185,5.597,9.761
4.716761,97.397,53.136,-12.617,-0.3264,-0.0512,0.1589,-1.153,7.112,8.234
4.733428,97.491,53.010,-12.418,-0.3329,-0.2211,0.2201,-4.097,7.629,6.694
4.750095,97.556,52.899,-12.228,-0.2649,-0.1971,0.2675,-5.454,7.257,5.858
4.766762,97.593,52.798,-12.060,-0.2730,-0.2236,0.2259,-5.999,6.393,5.326
4.783429,97.602,52.709,-11.920,-0.2647,-0.2382,0.0843,-6.339,5.356,4.802
4.800096,97.573,52.638,-11.792,-0.2226,-0.2670,-0.0170,-8.023,4.784,3.733
4.816763,97.481,52.600,-11.666,-0.1093,-0.2460,0.0667,-11.717,4.490,1.837
4.833430,97.389,52.607,-11.571,-0.0763,-0.0764,0.0322,-10.205,3.010,-0.748
4.850097,97.343,52.637,-11.541,0.1176,-0.0283,0.0296,-4.389,0.498,-1.747
4.866764,97.354,52.669,-11.573,0.2025,-0.1096,0.0041,2.080,-1.774,-1.622
4.883431,97.384,52.699,-11.654,0.2982,-0.1019,0.0250,5.478,-3.492,-1.247
4.900098,97.344,52.736,-11.780,0.4891,-0.1068,0.0954,3.431,-5.140,-1.517
4.916765,97.223,52.791,-11.939,0.5982,-0.0087,0.1028,0.258,-6.504,-2.424
4.933432,97.076,52.839,-12.130,0.6073,0.2387,0.1001,0.179,-7.559,-1.887
4.950099,96.985,52.858,-12.363,0.6431,0.3717,0.0988,5.494,-8.842,-0.014
4.966766,96.926,52.850,-12.618,0.7282,0.4496,0.1121,8.505,-9.491,1.657
4.983433,96.877,52.811,-12.877,0.7033,0.5719,0.1296,9.310,-9.413,3.485
5.000100,96.861,52.747,-13.106,0.6921,0.5971,0.1392,9.800,-8.166,4.860
5.016767,96.875,52.669,-13.282,0.6132,0.5951,0.1773,9.067,-6.211,5.395
5.033434,96.844,52.596,-13.397,0.5672,0.5598,0.1857,3.413,-4.071,4.842
5.050101,96.716,52.535,-13.457,0.4776,0.6005,0.2262,-5.037,-2.165,3.876
5.066768,96.606,52.481,-13.483,0.3282,0.8134,0.0878,-5.572,-1.021,3.331
5.083435,96.582,52.424,-13.495,0.3358,0.8117,0.0292,-1.081,-0.518,3.428
5.100102,96.604,52.380,-13.494,0.3260,0.6599,0.0904,1.025,-0.150,2.586
5.116769,96.659,52.335,-13.481,0.1896,0.6613,-0.0169,2.462,0.257,2.585
5.133436,96.763,52.279,-13.471,0.1554,0.6101,-0.0209,5.542,0.242,3.248
5.150103,96.836,52.232,-13.457,0.2160,0.4698,0.0814,3.440,0.307,2.754
5.166770,96.858,52.195,-13.425,0.1788,0.4308,0.0830,-0.450,0.897,2.003
5.183437,96.868,52.159,-13.384,0.1327,0.3976,0.0781,-1.590,1.205,1.941
5.200104,96.908,52.123,-13.317,0.0899,0.3761,0.1328,-1.058,2.174,1.873
5.216771,96.974,52.091,-13.231,0.0633,0.2959,0.1584,-0.377,2.831,1.502
5.233438,97.050,52.066,-13.150,0.0050,0.3249,0.0058,0.452,2.574,1.086
5.250105,97.128,52.039,-13.071,-0.0146,0.2434,-0.0422,0.630,2.552,1.211
5.266772,97.196,52.013,-12.999,-0.0081,0.2261,0.0017,0.425,2.294,1.246
5.283439,97.269,51.995,-12.938,0.0112,0.1987,0.0235,1.203,1.827,0.739
5.300106,97.340,51.982,-12.891,-0.0294,0.1888,0.0277,1.763,1.242,0.529
5.316773,97.396,51.967,-12.847,-0.0791,0.1311,0.0491,0.977,1.208,0.687
5.333440,97.445,51.954,-12.791,-0.0518,0.1071,0.0751,0.024,1.610,0.499
5.350107,97.486,51.940,-12.730,-0.1275,0.1081,0.1406,-0.679,1.807,0.575
5.366774,97.530,51.927,-12.658,-0.1479,0.1628,0.0905,-1.062,2.208,0.393
5.383441,97.558,51.926,-12.595,-0.1334,0.1418,0.0491,-1.593,1.815,-0.194
5.400108,97.574,51.926,-12.538,-0.1756,0.2187,-0.0524,-1.990,1.573,-0.254
5.416775,97.594,51.924,-12.488,-0.1612,0.2992,-0.1006,-1.436,1.335,-0.144
5.433442,97.598,51.932,-12.448,-0.1482,0.2546,-0.1604,-1.948,0.888,-0.638
5.450109,97.553,51.951,-12.428,-0.0322,0.2173,-0.0986,-3.837,0.041,-1.195
5.466776,97.493,51.968,-12.437,-0.0465,0.2322,0.0833,-3.482,-0.960,-0.926
5.483443,97.443,51.984,-12.471,-0.0327,0.2098,0.2546,-1.679,-1.868,-0.750
5.500110,97.401,52.009,-12.528,-0.0178,0.2151,0.2471,-0.099,-2.778,-1.169
5.516777,97.382,52.048,-12.573,0.0267,0.2659,0.1459,0.694,-2.457,-2.051
5.533444,97.375,52.096,-12.613,0.1338,0.3845,-0.0616,1.196,-2.327,-2.577
5.550111,97.390,52.138,-12.671,0.2035,0.3431,-0.1384,3.336,-2.953,-2.174
5.566778,97.406,52.163,-12.731,0.2503,0.2791,0.0187,3.542,-2.924,-1.178
5.583445,97.387,52.175,-12.760,0.2047,0.1553,0.2012,-0.053,-1.636,-0.554
5.600112,97.360,52.188,-12.708,0.1576,0.2392,0.2126,-4.376,1.254,-0.975
5.616779,97.391,52.219,-12.613,0.1316,0.3055,0.1805,-2.889,2.724,-2.209
5.633446,97.467,52.273,-12.522,0.1503,0.3104,-0.0293,-0.083,2.396,-3.643
5.650113,97.558,52.326,-12.485,0.2633,0.2777,-0.1231,3.428,0.392,-3.265
5.666780,97.643,52.360,-12.531,0.2620,0.2006,-0.0650,6.954,-2.453,-1.775
5.683447,97.721,52.372,-12.629,0.2569,0.0537,0.1189,9.098,-4.181,-0.231
5.700114,97.757,52.366,-12.734,0.2133,-0.0357,0.2406,6.818,-4.281,0.932
5.716781,97.761,52.350,-12.803,0.1460,0.0311,0.2069,3.216,-2.891,1.298
5.733448,97.801,52.315,-12.827,-0.0304,0.2185,0.0777,3.318,-1.139,2.238
5.750115,97.877,52.268,-12.826,-0.1165,0.2539,-0.0221,4.275,-0.098,2.795
5.766782,97.950,52.224,-12.800,-0.2056,0.2520,-0.0799,2.882,0.787,2.477
5.783449,98.012,52.183,-12.745,-0.3005,0.2604,-0.1107,0.789,1.838,2.201
5.800116,98.057,52.146,-12.661,-0.4513,0.2449,-0.0827,-1.513,2.854,1.830
5.816783,98.048,52.124,-12.581,-0.4504,0.1747,-0.0746,-4.664,2.618,0.958
5.833450,98.000,52.118,-12.539,-0.4330,0.2732,-0.1823,-5.194,1.132,0.171
5.850117,97.971,52.114,-12.573,-0.3444,0.3186,-0.1649,-0.419,-1.687,0.532
5.866784,97.972,52.110,-12.656,-0.2431,0.1608,-0.0407,3.687,-3.482,0.721
5.883451,97.960,52.105,-12.750,-0.1600,0.0172,0.0834,3.410,-3.853,0.867
5.900118,97.951,52.091,-12.813,-0.0309,0.0506,0.1068,2.239,-2.676,1.265
5.916785,97.926,52.061,-12.851,0.0894,-0.0034,0.0841,0.041,-1.627,2.129
5.933452,97.870,52.011,-12.853,0.1203,0.0445,0.0225,-3.498,-0.163,3.069
5.950119,97.796,51.941,-12.829,0.1032,0.1138,0.0042,-5.871,1.004,4.118
5.966786,97.720,51.864,-12.778,0.0541,0.1523,0.0695,-7.105,1.928,4.440
5.983453,97.645,51.788,-12.710,-0.0145,0.2029,0.0631,-7.953,2.617,4.265
6.000120,97.582,51.715,-12.630,-0.0877,0.2573,0.0356,-7.829,3.095,4.032
6.016787,97.530,51.653,-12.534,-0.0534,0.2145,0.0895,-7.912,3.572,3.354
6.033454,97.496,51.602,-12.451,-0.0979,0.2364,0.0770,-6.256,3.022,2.719
6.050121,97.479,51.563,-12.386,-0.0796,0.2438,0.1175,-4.347,2.261,2.094
6.066788,97.472,51.533,-12.343,-0.1029,0.2460,0.1091,-2.795,1.430,1.699
6.083455,97.462,51.510,-12.318,-0.1059,0.3041,0.1057,-2.154,0.716,1.322
6.100122,97.432,51.499,-12.298,-0.0882,0.4015,0.0454,-3.026,0.393,0.696
6.116789,97.405,51.493,-12.273,-0.0535,0.5377,-0.0813,-3.130,0.550,0.298
6.133456,97.400,51.495,-12.235,0.0105,0.5313,0.0328,-2.534,1.060,-0.159
6.150123,97.406,51.504,-12.172,-0.0180,0.5365,0.0450,-3.079,1.920,-0.695
6.166790,97.417,51.512,-12.075,-0.0086,0.5111,0.0842,-4.238,3.118,-0.831
6.183457,97.424,51.523,-11.949,-0.0196,0.5094,0.0504,-5.879,4.157,-1.136
6.200124,97.445,51.536,-11.796,0.0054,0.5135,0.0498,-6.235,5.092,-1.388
6.216791,97.499,51.557,-11.628,0.0081,0.4713,0.0431,-4.978,5.568,-1.929
6.233458,97.564,51.590,-11.455,0.0851,0.3183,0.1526,-4.523,5.611,-2.671
6.250125,97.636,51.631,-11.275,0.0732,0.2707,0.1641,-4.458,5.855,-3.214
6.266792,97.693,51.676,-11.090,0.1219,0.2220,0.1581,-5.521,5.875,-3.417
6.283459,97.732,51.722,-10.905,0.1124,0.2043,0.0837,-6.720,6.006,-3.538
6.300126,97.768,51.768,-10.719,0.1384,0.2522,-0.0110,-6.599,5.752,-3.530
6.316793,97.804,51.823,-10.554,0.2267,0.1998,-0.0245,-5.825,5.036,-4.016
6.333460,97.844,51.880,-10.412,0.2181,0.2648,-0.0689,-4.695,4.302,-3.969
6.350127,97.875,51.926,-10.302,0.2916,0.1709,0.0222,-3.769,3.217,-3.204
6.366794,97.866,51.964,-10.198,0.2936,0.1147,0.0794,-5.772,3.011,-2.670
6.383461,97.841,51.991,-10.100,0.2817,0.1699,0.0358,-6.469,2.911,-1.987
6.400128,97.803,52.007,-10.012,0.2818,0.1436,0.0691,-6.843,2.609,-1.310
6.416795,97.758,52.024,-9.930,0.2054,0.1620,0.1977,-7.021,2.458,-1.357
6.433462,97.715,52.047,-9.854,0.0693,0.1787,0.2398,-6.679,2.234,-1.663
6.450129,97.670,52.087,-9.766,0.1023,0.2173,0.2252,-7.372,2.549,-2.715
6.466796,97.638,52.146,-9.691,0.0457,0.3400,-0.0274,-5.723,1.736,-3.787
6.483463,97.614,52.217,-9.642,0.1306,0.3077,-0.1189,-4.219,0.825,-4.423
6.500130,97.597,52.298,-9.625,0.1317,0.3215,-0.0986,-1.886,-0.723,-4.812
6.516797,97.582,52.388,-9.652,0.2369,0.2101,0.0577,0.393,-2.427,-5.135
6.533464,97.541,52.490,-9.719,0.3083,0.1390,0.2339,0.221,-3.633,-5.695
6.550131,97.503,52.595,-9.803,0.3734,0.1647,0.2142,1.411,-4.381,-5.766
6.566798,97.467,52.706,-9.897,0.3548,0.1486,0.1789,3.161,-5.572,-6.077
6.583465,97.411,52.826,-10.034,0.3576,0.1704,0.1512,2.985,-6.456,-6.434
6.600132,97.358,52.972,-10.209,0.4349,0.1842,0.2030,3.860,-7.185,-7.847
6.616799,97.332,53.150,-10.387,0.3943,0.2987,0.1311,6.883,-8.404,-9.697
6.633466,97.357,53.344,-10.587,0.4393,0.2994,0.0914,12.350,-10.200,-10.584
6.650133,97.425,53.544,-10.881,0.5591,0.2646,0.0936,17.798,-12.398,-10.524
6.666800,97.500,53.743,-11.188,0.5138,0.2675,0.0522,21.105,-14.331,-10.363
6.683467,97.567,53.941,-11.713,0.3983,0.2366,0.0403,21.757,-15.439,-9.471
6.700134,97.593,54.136,-12.215,0.4510,0.0389,0.2088,19.741,-15.593,-9.416
6.716801,97.621,54.342,-12.604,0.3298,0.1295,0.3388,19.042,-14.831,-10.433
6.733468,97.640,54.535,-12.859,0.1503,0.1169,0.2211,19.167,-14.822,-10.244
6.750135,97.658,54.737,-13.295,0.1896,0.1007,0.2016,18.499,-14.689,-10.077
6.766802,97.665,54.924,-13.668,0.1939,0.2865,0.0741,18.516,-14.876,-9.440
6.783469,97.759,55.089,-14.098,-0.0582,0.4373,0.1761,24.900,-15.472,-7.889
6.800136,97.855,55.231,-14.382,-0.0484,0.2855,0.1023,25.821,-15.501,-7.000
6.816803,97.863,55.376,-14.737,-0.0783,0.3746,-0.1630,19.923,-15.213,-6.909
6.833470,97.837,55.514,-15.149,-0.0624,0.6714,-0.4643,18.296,-15.419,-6.259
6.850137,97.781,55.641,-15.609,0.0146,0.6829,-0.5077,18.810,-16.860,-5.389
6.866804,97.645,55.753,-16.169,0.0546,0.6879,-0.4575,17.814,-19.288,-4.075
6.883471,97.386,55.829,-16.808,0.0815,0.7009,-0.3453,15.943,-22.578,-1.633
6.900138,97.000,55.864,-17.569,-0.0121,0.5946,-0.1159,14.276,-26.234,1.205
6.916805,96.433,55.859,-18.462,-0.0591,0.4180,0.0051,9.937,-30.368,3.944
6.933472,95.715,55.831,-19.486,-0.0844,0.4348,-0.0493,7.386,-34.668,5.381
6.950139,94.918,55.778,-20.651,-0.1043,0.5771,-0.1308,9.556,-39.339,6.920
6.966806,94.117,55.692,-21.940,-0.0525,0.5999,-0.1557,15.500,-43.563,8.684
6.983473,93.317,55.560,-23.337,0.0364,0.6385,-0.0981,20.821,-47.241,11.113
7.000140,92.451,55.362,-24.826,0.0313,0.5642,0.0407,21.220,-50.539,14.536
7.016807,91.458,55.101,-26.364,-0.0004,0.5466,0.1345,15.857,-52.613,17.613
7.033474,90.303,54.775,-27.921,-0.2270,0.6495,0.1186,6.704,-53.864,20.556
7.050141,89.038,54.414,-29.480,-0.4264,1.0139,0.0861,-0.018,-54.877,21.528
7.066808,87.818,54.036,-31.060,-0.5463,1.3603,-0.0383,3.211,-56.523,21.349
7.083475,86.657,53.661,-32.667,-0.4833,1.2819,-0.0588,7.723,-58.431,19.991
7.100142,85.468,53.296,-34.330,-0.5330,1.3500,-0.0999,8.417,-61.284,18.018
7.116809,84.269,52.914,-36.051,-0.5104,1.5627,-0.2798,10.120,-64.307,17.563
7.133476,83.061,52.491,-37.770,-0.4121,1.6577,-0.3972,9.070,-65.426,18.657
7.150143,81.790,52.019,-39.506,-0.4057,1.5937,-0.2277,5.574,-67.453,20.082
7.166810,80.354,51.520,-41.271,-0.4987,1.3942,-0.0728,-3.562,-69.904,19.788
7.183477,78.715,51.013,-43.037,-0.4568,1.2545,0.0929,-16.194,-71.251,18.311
7.200144,77.066,50.510,-44.830,-0.6067,1.4075,-0.1187,-16.217,-73.383,15.689
7.216811,75.510,50.006,-46.637,-0.5431,1.4587,-0.2850,-10.528,-75.036,13.473
7.233478,73.984,49.494,-48.466,-0.5111,1.2472,-0.3240,-8.435,-76.984,11.481
7.250145,72.315,48.964,-50.343,-0.4206,0.9925,-0.2319,-15.407,-80.124,9.702
7.266812,70.563,48.394,-52.280,-0.4751,0.9515,-0.1953,-18.431,-84.133,8.610
7.283479,68.897,47.774,-54.351,-0.4935,0.8793,-0.2931,-8.125,-91.253,6.719
7.300146,67.232,47.115,-56.510,-0.3719,0.6122,-0.3374,-5.001,-96.564,4.630
7.316813,65.603,46.407,-58.689,-0.2539,0.4495,-0.5533,-3.064,-99.539,3.765
7.333480,63.893,45.688,-60.789,0.2082,0.0784,-0.0874,-12.446,-98.024,2.444
7.350147,62.116,44.971,-62.775,0.1692,-0.0392,0.1139,-22.400,-94.660,1.004
7.366814,60.469,44.285,-64.639,0.0237,-0.1847,0.3891,-20.744,-90.078,-1.455
7.383481,58.959,43.661,-66.358,-0.1396,-0.2760,0.1666,-19.498,-83.446,-4.404
7.400148,57.519,43.113,-67.906,-0.0347,-0.4383,-0.0608,-23.094,-75.227,-6.847
7.416815,56.239,42.610,-69.309,-0.0770,-0.2890,-0.6456,-20.015,-68.635,-7.723
7.433482,55.205,42.126,-70.567,0.1217,-0.2536,-0.8955,-11.616,-62.918,-6.744
7.450149,54.310,41.683,-71.667,0.3317,-0.4370,-0.7979,-10.074,-55.918,-5.931
7.466816,53.409,41.328,-72.574,0.6379,-0.5905,-0.4386,-18.324,-45.990,-6.178
7.483483,52.468,41.115,-73.294,0.4915,-0.5093,0.0525,-28.462,-34.104,-8.724
7.500150,51.502,41.045,-73.874,-0.2638,-0.4040,0.0272,-35.478,-23.751,-12.199
7.516817,50.583,41.084,-74.361,-0.7650,-0.4197,0.0605,-36.292,-16.181,-15.057
7.533484,49.635,41.178,-74.830,-1.0111,-0.5007,0.2383,-38.761,-13.109,-17.316
7.550151,48.578,41.307,-75.299,-0.5468,-1.0271,0.7163,-45.238,-11.365,-19.058
7.566818,47.393,41.473,-75.835,-0.1989,-1.1055,0.6724,-50.164,-11.720,-22.953
7.583485,46.103,41.626,-76.456,-0.6714,-0.5116,0.1976,-53.029,-14.485,-25.214
7.600152,44.540,41.758,-77.148,-0.7590,-0.6832,0.6569,-66.487,-16.931,-26.870
7.616819,42.686,41.888,-77.942,-1.0111,-0.4316,0.2136,-79.752,-19.285,-30.486
7.633486,40.626,41.985,-78.787,-0.8596,-0.1726,-0.1894,-90.011,-21.159,-31.454
7.650153,38.362,42.127,-79.600,0.3439,-0.8351,0.5884,-103.480,-16.872,-32.813
7.666820,35.979,42.316,-80.385,0.5250,-0.9433,0.5577,-111.572,-12.480,-34.099
7.683487,33.965,42.475,-81.241,-1.3160,-0.9320,0.1493,-86.472,-14.378,-36.034
7.700154,32.502,42.535,-82.166,-2.1023,-0.4798,-0.8450,-50.525,-19.868,-35.683
7.716821,31.476,42.559,-83.075,-1.1913,0.0106,-1.5663,-24.900,-20.524,-34.303
7.733488,30.642,42.578,-83.924,-0.4414,0.1250,-1.3472,-15.808,-18.743,-32.145
7.750155,29.618,42.670,-84.718,1.8479,-1.2020,0.3501,-29.386,-13.245,-32.531
7.766822,27.693,42.895,-85.600,2.2554,-1.6292,1.7047,-79.725,-7.233,-40.035
7.783489,25.295,43.159,-86.553,0.4984,-0.7126,0.8007,-105.090,-4.885,-44.037
7.800156,23.743,43.268,-87.426,-1.5226,0.5283,-0.3318,-57.443,-10.325,-37.054
7.816823,23.389,43.102,-88.342,-3.3002,1.7648,-1.9321,16.138,-25.538,-32.301
7.833490,23.639,42.742,-89.233,0.1849,-0.5428,-0.8099,51.211,-35.828,-26.753
7.850157,23.782,42.456,-90.042,1.7177,-0.2545,-0.8011,41.278,-30.502,-25.311
7.866824,24.160,42.300,-90.685,-0.0860,0.6390,-0.9849,48.556,-20.523,-21.779
7.883491,24.950,42.223,-91.399,-1.1202,1.5778,-1.2707,76.001,-17.792,-26.416
7.900158,26.377,42.273,-91.998,0.4634,1.9673,-0.7747,109.573,-9.229,-24.725
7.916825,27.670,42.463,-92.535,0.4306,0.9129,0.0377,99.133,-1.057,-25.870
7.933492,28.949,42.742,-93.074,-0.3679,1.5478,-0.7584,98.434,3.004,-28.305
7.950159,30.147,43.140,-93.513,0.5973,1.6393,0.2053,89.566,10.892,-27.996
7.966826,31.148,43.518,-93.969,0.3940,1.7033,0.2385,78.602,8.948,-28.067
7.983493,32.158,43.838,-94.378,0.3869,1.4569,0.6227,77.321,6.604,-24.568
8.000160,33.247,44.101,-94.733,0.4853,1.0538,1.1812,79.879,4.580,-20.779
8.016827,34.308,44.314,-95.035,-0.0061,0.7740,1.8855,76.021,2.968,-17.242
8.033494,35.401,44.466,-95.174,0.1224,0.7839,1.4829,71.128,3.629,-9.438
8.050161,36.332,44.646,-95.140,-0.0287,0.5447,1.9727,54.176,9.205,-4.501
8.066828,37.080,44.888,-94.928,-0.5416,1.1672,1.5254,35.649,16.604,-0.742
8.083495,37.915,45.132,-94.661,-0.6219,0.9449,1.8006,38.496,18.127,0.753
8.100162,38.818,45.393,-94.395,-0.4204,1.5082,1.1583,42.567,18.854,-0.238
8.116829,39.684,45.696,-94.089,-0.1925,1.0974,1.4844,38.544,21.794,-0.791
8.133496,40.118,46.046,-93.686,0.2620,0.1159,1.9094,8.367,26.522,0.205
8.150163,40.450,46.310,-93.245,-0.6187,0.4955,1.1539,0.522,23.524,4.451
8.166830,40.909,46.474,-92.861,-0.8252,0.3838,0.5309,10.486,17.470,6.364
8.183497,41.141,46.628,-92.639,-0.7774,0.2902,-0.0629,3.895,12.606,1.601
8.200164,41.376,46.806,-92.503,-0.6836,0.3107,-0.8883,7.826,11.330,-2.063
8.216831,41.679,47.051,-92.354,-0.5715,-0.9409,-0.3110,11.289,14.691,-4.373
8.233498,42.277,47.275,-92.145,-0.5762,-0.3608,-0.4347,26.379,15.346,-1.919
8.250165,43.585,47.504,-91.966,-1.0032,0.3358,-1.0259,70.302,14.675,-3.293
8.266832,45.220,47.814,-91.898,-1.3444,0.2209,-0.2932,94.745,14.942,-10.321
8.283499,46.670,48.239,-91.955,-0.5913,-0.0800,0.0678,89.149,15.836,-19.108
8.300166,47.989,48.709,-92.193,-0.9118,0.0925,-0.1173,89.484,11.908,-26.372
8.316833,49.428,49.075,-92.619,-0.3439,-0.1066,-0.2490,105.289,1.669,-26.832
8.333500,51.119,49.349,-93.217,-0.3445,-0.9156,-0.2553,128.307,-7.737,-26.846
8.350167,52.914,49.574,-93.965,-0.3736,-1.0425,-0.2254,141.463,-14.849,-27.842
8.366834,54.770,49.755,-94.856,0.1827,-0.6744,-0.7316,151.766,-21.626,-28.442
8.383501,56.376,49.948,-95.741,0.2049,-1.5015,-0.1318,136.674,-21.784,-28.217
8.400168,57.458,50.161,-96.520,0.5161,-2.0155,0.0768,100.421,-18.247,-26.418
8.416835,58.577,50.381,-97.299,0.0960,-1.0502,-0.4607,102.846,-18.451,-26.381
8.433502,59.646,50.498,-98.118,0.2196,-1.6464,0.2346,101.718,-23.302,-21.494
8.450169,60.700,50.564,-99.020,0.3777,-0.7218,-0.1892,104.849,-27.957,-20.002
8.466836,61.829,50.624,-99.825,3.4646,-1.3523,-0.8154,104.793,-25.207,-17.371
8.483503,62.903,50.814,-100.117,5.8388,-1.4464,-1.6316,77.731,-4.622,-14.765
8.500170,63.529,51.168,-99.930,6.2814,-1.9520,-1.8290,28.616,15.675,-15.379
8.516837,64.418,51.679,-99.710,3.2639,1.0820,-2.1826,42.773,20.578,-23.582
8.533504,65.589,52.187,-99.585,2.1690,-0.1247,-1.4903,64.114,16.722,-25.332
8.550171,66.581,52.853,-99.640,1.3838,-0.6649,0.0844,61.908,14.013,-37.072
8.566838,67.316,53.522,-99.823,1.3679,-0.3055,0.3511,52.656,9.271,-39.178
8.583505,67.793,54.229,-100.083,1.2303,-1.3006,0.9501,41.015,7.294,-42.454
8.600172,67.931,54.953,-100.303,2.2824,-1.3440,-0.1487,18.839,8.836,-42.863
8.616839,68.278,55.696,-100.280,2.4220,-1.3389,-0.9089,19.447,16.886,-40.809
8.633506,68.319,56.466,-99.894,3.0931,-5.5585,0.6582,-16.935,28.590,-37.970
8.650173,66.834,57.485,-98.971,2.4646,-7.7577,1.9867,-135.719,50.690,-44.926
8.666840,63.695,58.729,-98.187,0.8440,-0.7891,-1.0595,-228.296,53.195,-57.452
8.683507,61.685,59.746,-98.091,-5.3292,7.8991,-3.1728,-125.665,30.076,-52.974
8.700174,61.675,59.739,-98.872,-5.0707,-1.9501,3.5365,39.814,-21.516,-10.777
8.716841,61.201,59.255,-100.625,-4.2152,-3.1457,3.3088,61.979,-61.185,0.046
8.733508,60.703,58.420,-102.924,-3.1384,-1.2460,0.2980,88.106,-87.097,9.198
8.750175,60.241,57.679,-105.339,0.8113,-1.8391,-0.8983,95.112,-88.931,0.929
8.766842,60.526,57.285,-107.251,5.6358,0.1862,-2.8217,113.716,-65.613,-9.892
8.783509,60.550,57.384,-108.821,4.1804,2.4433,-2.4100,80.642,-41.759,-30.206
8.800176,60.216,57.800,-110.555,0.5623,4.0337,-0.7952,67.697,-36.615,-49.225
8.816843,59.692,58.251,-112.860,-0.6950,1.6231,0.9448,85.715,-50.307,-60.019
8.833510,58.816,58.642,-115.176,-1.0606,0.2120,1.8231,65.752,-50.952,-57.227
8.850177,57.723,58.911,-117.145,-0.3182,-0.4675,1.1577,35.331,-44.058,-45.784
8.866844,56.599,59.101,-118.718,-0.2599,-0.8068,0.9221,13.323,-35.087,-35.851
8.883511,55.404,59.217,-119.923,-0.3157,-0.1923,-0.0236,-9.760,-27.270,-26.358
8.900178,54.403,59.260,-120.973,-1.3824,-0.9782,1.0119,-6.008,-25.305,-20.538
8.916845,53.655,59.293,-121.878,-1.1631,-0.9283,0.1142,1.639,-21.686,-17.798
8.933512,53.201,59.323,-122.551,-0.5228,-1.3036,0.3823,7.387,-15.866,-13.633
8.950179,52.583,59.400,-122.990,0.7126,-0.9244,-0.7077,-14.535,-8.286,-11.745
8.966846,52.234,59.465,-123.039,1.7992,-1.4741,-1.6414,-18.527,0.804,-3.931
8.983513,52.079,59.527,-123.162,0.5901,-1.7984,0.1388,-3.009,-1.096,-5.205
9.000180,52.090,59.581,-123.515,-0.2517,-0.2115,0.0722,18.828,-6.886,-9.151
9.016847,52.238,59.668,-124.050,-0.4831,0.4653,-0.0529,36.524,-10.052,-14.094
9.033514,52.388,59.828,-124.584,-0.6600,-0.2720,0.2583,36.535,-7.310,-17.455
9.050181,52.611,60.028,-124.929,-0.6564,-0.6544,-0.4218,31.196,-1.300,-15.830
9.066848,53.200,60.232,-124.987,-1.0765,-1.4812,-0.1539,38.275,5.616,-10.815
9.083515,53.930,60.396,-124.810,-1.5858,-1.8502,0.7362,34.482,9.725,-4.800
9.100182,54.687,60.507,-124.519,-1.8071,-1.0651,1.1509,30.169,10.517,-0.405
9.116849,55.251,60.573,-124.100,-1.8999,-0.9411,1.1843,11.891,12.061,3.792
9.133516,55.414,60.586,-123.747,-1.3706,-1.8152,0.9958,-8.784,8.719,5.226
9.150183,55.186,60.585,-123.162,-0.3294,-3.4944,0.4635,-44.304,13.854,9.808
9.166850,54.637,60.636,-121.948,-0.0089,-5.7235,0.5479,-96.457,30.725,17.936
9.183517,53.860,60.764,-120.377,-0.4282,-4.6806,0.5118,-128.820,41.682,20.492
9.200184,53.180,60.945,-118.745,-0.4622,-2.6839,-0.1419,-126.307,44.543,19.398
9.216851,52.700,61.263,-117.077,-1.4408,-1.4735,-0.0203,-116.431,49.844,13.666
9.233518,52.056,61.485,-116.060,-4.1183,1.9145,0.3348,-92.218,31.107,7.023
9.250185,52.116,61.459,-115.532,-3.5004,1.7843,-0.2268,-24.223,10.863,10.260
9.266852,52.700,61.214,-115.462,-3.3020,-0.6267,0.3805,31.386,-7.504,12.711
9.283519,53.049,60.893,-115.570,-2.9820,-2.1811,0.6500,26.581,-14.166,13.285
9.300186,53.417,60.554,-115.669,-2.1127,-0.8411,-0.5791,27.266,-14.542,14.391
9.316853,54.069,60.356,-115.914,-1.9696,0.6415,-1.4814,51.940,-12.889,5.106
9.333520,54.805,60.222,-116.434,-2.0117,-0.0298,-0.9206,71.269,-17.212,-2.662
9.350187,55.509,60.243,-116.925,-0.8623,-1.0394,-0.4431,67.809,-11.255,-9.546
9.366854,55.770,60.316,-117.250,-0.8216,-0.7177,-0.9593,32.503,-5.457,-9.231
9.383521,55.844,60.407,-117.495,-0.9821,0.5672,-0.6033,17.231,-2.905,-8.787
9.400188,55.722,60.515,-117.768,-0.6857,0.1051,-0.3141,6.964,-2.987,-10.067
9.416855,55.455,60.678,-118.066,0.7160,1.0268,-1.2464,-0.494,-1.643,-13.165
9.433522,55.302,60.830,-118.295,0.3686,1.0917,-0.9389,2.803,-0.300,-11.485
9.450189,55.406,60.990,-118.520,1.0934,0.3278,-0.3732,18.025,0.097,-11.759
9.466856,55.781,61.169,-118.605,1.9203,0.5134,-0.6064,26.942,4.054,-10.361
9.483523,56.251,61.342,-118.584,2.2912,0.6580,0.1193,27.039,6.331,-8.416
9.500190,56.735,61.495,-118.470,2.7562,0.2501,0.8090,22.996,7.722,-5.938
9.516857,57.262,61.605,-118.258,2.6728,0.1480,0.8995,20.431,8.630,-2.378
9.533524,57.937,61.654,-117.963,2.9315,-0.0185,0.6089,24.885,8.590,1.861
9.550191,58.890,61.645,-117.573,3.5939,-0.4753,0.2486,36.586,9.006,6.185
9.566858,60.217,61.590,-117.178,3.6787,-0.0829,-0.0366,58.731,7.857,8.396
9.583525,61.655,61.532,-116.833,3.0389,-0.0794,0.5336,68.057,6.680,7.663
9.600192,63.158,61.503,-116.487,3.2754,1.3576,0.3064,71.923,7.680,5.943
9.616859,64.859,61.494,-116.099,3.5019,2.0831,-0.1578,81.566,9.442,5.195
9.633526,66.883,61.541,-115.653,2.9330,1.7426,0.3119,97.896,12.438,2.484
9.650193,69.233,61.645,-115.099,3.3740,1.7505,-0.1261,111.748,16.590,0.020
9.666860,71.990,61.830,-114.320,3.7533,1.2829,-0.5903,124.226,24.125,-3.222
9.683527,75.174,62.037,-113.275,3.4343,-0.3706,0.6466,135.687,31.296,-3.654
9.700194,78.384,62.190,-112.148,0.1735,-1.3473,1.9950,132.765,32.362,-1.733
9.716861,81.218,62.335,-111.048,-0.1139,-0.8932,0.7300,111.634,31.219,-3.165
9.733528,84.399,62.620,-109.872,3.0533,2.5924,-2.3809,128.278,33.945,-12.984
9.750195,88.419,62.999,-108.176,4.0409,2.1207,-1.7701,150.664,47.256,-19.750
9.766862,92.205,63.353,-106.189,0.5980,-0.2037,-0.1298,120.731,53.071,-21.529
9.783529,95.832,63.613,-104.191,-0.1433,-1.3676,-0.3307,110.319,51.669,-19.236
9.800196,99.255,63.815,-102.023,1.2702,-1.6821,-0.9046,88.783,54.881,-19.544
9.816863,102.217,63.976,-99.774,0.4954,-1.8998,-0.5835,56.511,55.897,-20.521
9.833530,104.785,64.104,-97.600,-0.1707,-0.8129,-0.7205,36.799,53.081,-20.789
9.850197,106.758,64.151,-95.526,-2.3968,-2.1167,0.3120,6.420,50.836,-17.440
9.866864,108.459,64.188,-93.853,-3.0436,-1.2566,0.1768,11.786,40.392,-15.334
9.883531,109.896,64.206,-92.763,-3.2679,-1.4838,-0.0046,27.312,25.938,-10.403
9.900198,110.881,64.150,-91.939,-3.0566,-1.9764,-0.7770,14.638,20.806,-4.377
9.916865,111.578,64.081,-91.444,-3.4406,-1.6187,-0.4894,15.163,13.054,-0.877
9.933532,111.792,63.991,-91.204,-4.2388,-1.8323,0.1661,-0.061,7.363,2.612
9.950199,111.535,63.904,-91.201,-4.4479,-1.5076,0.2784,-15.503,1.541,4.729
9.966866,110.827,63.783,-91.558,-4.4827,-1.3962,0.4004,-23.169,-6.588,10.051
9.983533,109.761,63.701,-92.157,-3.8422,-0.8023,0.3055,-31.707,-13.563,9.966
10.000200,108.475,63.674,-92.854,-2.9689,-1.2658,0.7209,-39.571,-17.325,7.427
10.016867,107.050,63.671,-93.725,-2.6864,-0.8224,0.7462,-38.607,-22.307,7.022
10.033534,105.703,63.681,-94.706,-2.1238,-0.5640,0.7034,-28.005,-25.470,6.586
10.050201,104.594,63.751,-95.669,-1.1375,0.4350,0.7353,-14.719,-26.033,2.410
10.066868,103.529,63.917,-96.422,-1.2902,-0.0416,1.2265,-23.252,-21.958,-4.978
10.083535,102.231,64.131,-96.775,-1.0356,-1.0457,1.5728,-58.778,-12.133,-10.676
10.100202,100.570,64.406,-96.744,-0.2693,-1.2108,0.8736,-101.294,-2.643,-16.517
10.116869,98.980,64.690,-96.661,0.0956,-0.0464,-0.1188,-99.833,-0.967,-17.419
10.133536,97.905,64.975,-96.528,0.3186,-0.3428,-0.5095,-71.664,0.663,-17.635
10.150203,97.128,65.251,-96.283,-0.1843,-0.6735,-0.3835,-59.898,3.798,-17.423
10.166870,96.482,65.525,-95.720,0.2940,-1.1177,-0.9699,-69.401,11.856,-18.180
10.183537,95.969,65.754,-94.846,1.0484,-0.8798,-1.2149,-78.475,19.859,-16.237
10.200204,95.794,65.958,-93.704,0.3062,-1.0568,-0.8261,-72.961,26.462,-15.273
10.216871,96.067,66.126,-92.454,0.1979,-0.6392,-0.4583,-52.048,29.061,-13.426
10.233538,96.450,66.191,-91.173,0.0212,-1.5753,0.1941,-47.224,30.305,-7.470
10.250205,96.643,66.247,-89.623,0.1225,-1.3681,0.5042,-73.463,36.712,-7.868
10.266872,96.491,66.328,-88.008,-0.1156,-0.4129,0.4774,-97.649,37.980,-9.525
10.283539,96.109,66.431,-86.380,0.0756,-0.9279,0.5427,-112.340,38.087,-10.696
10.300206,95.704,66.529,-85.132,-0.2466,0.6447,0.0058,-92.844,28.974,-9.173
10.316873,95.605,66.585,-84.207,-0.0458,0.0774,0.2023,-56.756,21.513,-5.751
10.333540,95.564,66.622,-83.544,0.0406,0.0019,0.2585,-38.831,15.390,-3.929
10.350207,95.598,66.669,-83.074,-0.2912,0.2646,0.6285,-23.686,10.711,-4.140
10.366874,95.503,66.651,-82.916,-0.4707,0.2423,0.7877,-14.358,3.743,0.531
10.383541,95.364,66.570,-82.757,-0.1530,0.3645,0.5511,-16.964,4.110,4.267
10.400208,95.412,66.517,-82.573,0.7667,1.7515,-0.0217,-7.098,4.563,2.524
10.416875,95.360,66.534,-82.346,1.3777,1.6929,0.1223,-15.519,5.183,-1.657
10.433542,94.873,66.581,-82.033,1.2930,1.5292,0.0672,-46.325,7.053,-3.672
10.450209,94.572,66.658,-81.762,1.5520,2.2659,-0.3807,-32.902,5.913,-5.255
10.466876,94.378,66.775,-81.689,1.8337,2.4157,-0.3787,-15.637,1.033,-7.306
10.483543,94.238,66.904,-81.710,1.7245,2.4082,-0.0752,-7.139,-1.249,-7.802
10.500210,94.188,67.045,-81.751,1.4923,1.9907,0.4974,-0.731,-1.757,-8.421
10.516877,93.900,67.179,-81.942,0.8504,0.6880,1.0732,-6.695,-5.224,-7.836
10.533544,93.328,67.232,-82.376,1.1796,-0.7837,1.2963,-10.272,-10.474,-2.602
10.550211,92.270,67.269,-83.286,-0.3426,-0.1838,0.3127,-13.037,-21.437,-1.254
10.566878,91.395,67.289,-84.412,0.7007,0.2136,-0.5878,9.828,-26.329,-0.485
10.583545,90.579,67.270,-85.812,0.0737,-0.4303,-0.4749,28.526,-32.632,1.613
10.600212,89.756,67.233,-87.258,0.9432,-0.5722,-0.9817,30.625,-33.774,2.263
10.616879,89.105,67.172,-88.588,1.4400,0.4106,-0.9465,34.527,-31.189,3.227
10.633546,88.467,67.033,-89.968,1.4844,0.7961,-0.6158,38.062,-32.638,7.597
10.650213,88.211,66.857,-91.250,1.8374,1.4116,-0.3874,55.563,-30.740,9.562
10.666880,88.141,66.678,-92.128,2.0836,-0.1169,0.5734,44.104,-21.341,10.021
10.683547,87.893,66.496,-92.826,1.9251,-0.0993,0.7847,23.549,-17.311,10.262
10.700214,87.831,66.286,-93.396,1.4685,-0.2668,0.3284,27.610,-14.492,11.958
10.716881,88.031,66.105,-94.029,0.6634,0.3151,-0.5055,46.833,-16.073,10.238
10.733548,88.568,65.939,-94.490,0.6150,-0.0391,-0.1037,57.446,-11.876,9.509
10.750215,89.290,65.902,-94.615,1.6745,1.6499,-0.0084,50.237,-3.465,2.078
10.766882,90.102,65.922,-94.404,0.7803,1.9074,0.1415,37.151,4.805,-1.199
10.783549,91.129,65.949,-93.739,0.8361,0.4395,-0.6365,25.176,15.868,-1.855
10.800216,92.316,65.993,-92.321,1.6717,-1.5299,-0.9708,-6.489,34.146,-3.715
10.816883,92.975,66.115,-90.063,0.1726,-4.8276,0.4151,-84.318,54.202,-9.937
10.833550,93.293,66.375,-87.250,-0.6865,-2.8297,0.3791,-135.307,66.622,-19.389
10.850217,94.093,66.654,-84.315,-2.7069,-2.0437,0.1473,-113.425,68.549,-21.370
10.866884,94.901,66.851,-82.150,-5.7148,-1.9225,0.7249,-70.821,49.846,-15.910
10.883551,95.491,66.882,-80.846,-6.4866,-1.7100,0.8901,-36.443,30.134,-4.794
10.900218,96.204,66.656,-80.357,-5.8799,-1.4459,0.0158,15.877,12.668,12.168
10.916885,97.140,66.359,-80.531,-4.2127,-1.5483,0.1847,65.806,-2.243,18.035
10.933552,97.969,66.171,-81.140,-3.5167,-1.6335,0.1368,83.318,-13.261,12.983
10.950219,98.887,66.038,-81.732,-3.3056,-1.2672,0.3319,87.640,-13.172,9.857
10.966886,99.468,65.960,-82.120,-2.6900,-1.4177,0.1196,56.229,-8.695,5.985
10.983553,99.573,65.930,-82.521,-2.2245,-0.6707,-0.4369,28.378,-9.447,3.226
11.000220,99.313,65.925,-82.913,-1.9789,-0.1500,-0.7472,6.034,-9.479,1.713
11.016887,98.944,65.963,-83.313,-2.3096,0.1383,-0.3404,-0.160,-10.041,-0.874
11.033554,98.604,66.040,-83.737,-1.9481,-0.2965,-0.1365,2.950,-10.963,-3.178
11.050221,98.508,66.155,-84.119,-1.1540,-0.2582,-0.1296,15.319,-10.210,-5.567
11.066888,98.423,66.317,-84.258,-0.0158,-0.5755,-0.4625,2.644,-4.745,-9.292
11.083555,98.191,66.540,-84.158,0.7128,0.2687,-1.0406,-19.290,0.457,-13.729
11.100222,97.753,66.759,-83.887,0.5439,0.1771,-0.8869,-41.120,4.563,-14.095
11.116889,97.182,66.978,-83.537,0.7914,0.6196,-0.6070,-53.468,6.469,-14.241
11.133556,96.503,67.187,-82.973,0.9407,0.0459,0.0060,-71.762,11.572,-14.162
11.150223,95.920,67.381,-82.250,1.5946,-0.0403,0.5039,-74.929,15.396,-13.500
11.166890,95.621,67.552,-81.571,1.7823,-0.1419,0.5152,-55.480,14.473,-11.892
11.183557,95.601,67.722,-80.934,1.8635,0.6561,-0.1190,-36.411,13.431,-11.726
11.200224,95.736,67.887,-80.236,2.0522,1.3632,-0.3611,-30.506,14.678,-11.529
11.216891,95.706,68.041,-79.521,2.0121,1.4943,-0.0891,-41.486,15.032,-10.924
11.233558,95.475,68.201,-78.802,1.7743,1.1246,0.2699,-53.771,14.978,-11.172
11.250225,95.264,68.353,-78.116,1.8612,0.6533,0.2153,-50.900,14.231,-10.620
11.266892,95.020,68.478,-77.546,1.8799,0.1977,0.1176,-46.336,11.741,-8.673
11.283559,94.835,68.602,-77.100,1.3286,0.4056,-0.1012,-35.918,8.985,-8.395
11.300226,94.751,68.744,-76.753,1.2309,0.3095,-0.0671,-24.317,6.671,-9.172
11.316893,94.617,68.881,-76.552,1.5784,0.2222,0.1040,-19.186,3.522,-8.646
11.333560,94.224,68.987,-76.471,1.4331,0.1056,0.0362,-28.077,1.093,-6.573
11.350227,93.926,69.062,-76.326,1.0320,0.2372,-0.0590,-25.895,2.606,-4.807
11.366894,93.815,69.131,-76.172,0.7686,0.1910,-0.2238,-15.254,2.830,-4.436
11.383561,93.786,69.179,-76.015,0.6303,0.1954,-0.4374,-10.402,2.950,-3.191
11.400228,93.874,69.198,-75.760,0.2955,0.3757,-0.3883,-8.965,5.148,-1.607
11.416895,94.073,69.213,-75.421,-0.2297,0.1092,0.1220,-7.001,6.945,-1.473
11.433562,94.349,69.237,-75.052,-0.3553,0.0285,0.2725,-4.092,7.528,-2.099
11.450229,94.633,69.246,-74.727,-0.3340,0.1314,0.2067,-1.066,6.640,-1.191
11.466896,94.897,69.245,-74.472,-0.3220,-0.0612,0.1810,1.562,5.218,-0.492
11.483563,95.109,69.246,-74.268,-0.4886,-0.1334,0.2215,1.418,4.118,-0.496
11.500230,95.237,69.247,-74.182,-0.5097,-0.1976,0.0631,2.911,1.630,-0.291
11.516897,95.333,69.252,-74.163,-0.6513,-0.2331,0.2779,4.776,0.186,-0.402
11.533564,95.401,69.256,-74.245,-0.8079,-0.1712,0.3965,8.763,-1.933,-0.184
11.550231,95.527,69.272,-74.321,-0.4889,-0.4270,0.5385,11.913,-1.877,-0.859
11.566898,95.618,69.298,-74.361,-0.6083,-0.3496,0.5659,7.740,-1.155,-1.562
11.583565,95.736,69.338,-74.252,-0.4499,0.0258,0.3129,1.114,1.887,-2.695
11.600232,95.831,69.376,-74.152,-0.5288,-0.1005,0.0849,0.176,1.713,-2.566
11.616899,95.911,69.423,-74.050,-0.3068,-0.0093,-0.1736,-0.904,1.714,-3.093
11.633566,95.915,69.477,-73.969,-0.2747,-0.2154,-0.3443,-4.318,1.228,-3.455
11.650233,95.970,69.530,-73.905,-0.1516,-0.3906,-0.3685,-0.152,0.847,-3.384
11.666900,96.048,69.589,-73.853,-0.0183,-0.6933,-0.3544,1.834,0.555,-3.688
11.683567,96.164,69.635,-73.708,-0.0837,-0.4693,-0.3213,-1.055,2.567,-3.105
11.700234,96.240,69.682,-73.549,-0.0555,-0.8508,-0.0780,-4.266,2.837,-3.246
11.716901,96.267,69.720,-73.468,0.0119,-0.4993,-0.2302,-2.903,1.288,-2.571
11.733568,96.370,69.755,-73.447,0.0727,-0.4261,-0.0117,5.082,0.063,-2.169
11.750235,96.518,69.795,-73.445,-0.0457,0.1394,0.1490,8.804,-0.359,-2.493
11.766902,96.752,69.847,-73.410,-0.0140,0.1036,0.4276,12.215,0.212,-3.272
11.783569,96.993,69.915,-73.346,0.1218,0.0820,0.2130,10.395,0.871,-4.335
11.800236,97.234,69.965,-73.312,0.3709,0.1882,-0.0490,12.297,0.302,-3.123
11.816903,97.530,69.990,-73.337,0.2044,-0.0866,0.0022,19.243,-0.842,-1.516
11.833570,97.885,70.014,-73.295,0.1720,0.0030,0.1177,20.110,0.100,-1.607
11.850237,98.243,70.052,-73.169,0.2606,0.3093,0.2475,13.169,2.556,-2.685
11.866904,98.608,70.099,-73.035,0.2632,0.2392,0.2513,14.587,2.081,-3.281
11.883571,98.861,70.147,-72.929,0.1626,-0.4600,0.2109,7.216,2.308,-3.305
11.900238,99.055,70.177,-72.919,0.0584,-0.0788,-0.0413,9.127,0.517,-1.969
11.916905,99.263,70.204,-73.039,0.5532,-0.2198,-0.2615,17.332,-2.087,-1.300
11.933572,99.620,70.228,-73.020,0.3285,-0.1091,-0.1939,19.138,0.451,-1.617
11.950239,100.002,70.251,-72.946,-0.5291,0.1556,-0.0517,20.748,0.366,-1.623
11.966906,100.367,70.268,-72.895,-0.7867,0.1269,0.1030,18.171,1.000,-1.318
11.983573,100.497,70.297,-72.890,-0.8756,-0.1014,0.1852,9.495,-1.074,-1.765
12.000240,100.549,70.326,-72.937,-0.7638,-0.1137,-0.0572,5.979,-1.450,-1.560
12.016907,100.646,70.356,-72.978,-0.9191,-0.3637,-0.0703,7.298,-0.970,-1.770
12.033574,100.645,70.418,-73.017,-1.0540,-0.4818,0.1035,1.893,-1.477,-3.576
12.050241,100.565,70.476,-73.045,-0.9378,0.0684,-0.3009,-3.696,-1.106,-3.373
12.066908,100.638,70.536,-73.014,-0.8250,0.1938,-0.0972,0.939,0.463,-3.818
12.083575,100.759,70.614,-72.869,-0.7296,0.1101,0.2168,-1.920,2.246,-5.207
12.100242,100.840,70.703,-72.466,0.0937,-0.1904,0.3749,-15.754,5.979,-6.717
12.116909,100.877,70.780,-71.891,0.6350,-0.6884,0.4555,-28.188,9.429,-6.663
12.133576,100.793,70.841,-71.352,0.2811,-0.7185,0.5376,-34.572,9.294,-5.646
12.150243,100.857,70.886,-71.091,-0.0070,0.0442,0.2450,-16.049,6.274,-3.848
12.166910,101.019,70.917,-70.910,0.3450,0.0467,0.1666,-1.262,3.312,-2.590
12.183577,101.106,70.956,-70.783,0.2457,0.2649,-0.0121,-1.542,1.733,-2.868
12.200244,101.228,70.998,-70.761,0.3448,0.2314,-0.2101,6.382,-0.254,-2.588
12.216911,101.362,71.032,-70.827,0.4655,-0.0816,-0.1409,10.694,-1.387,-1.851
12.233578,101.411,71.053,-70.866,0.6175,-0.4589,-0.1308,1.802,0.097,-1.289
12.250245,101.375,71.046,-70.757,0.5581,-0.2954,-0.3469,-6.082,1.266,0.043
12.266912,101.439,71.026,-70.815,0.5471,-0.0940,-0.4319,2.381,0.720,1.174
12.283579,101.583,71.007,-70.856,0.3974,0.1098,-0.4459,9.410,-0.131,1.133
12.300246,101.771,70.995,-70.869,-0.1267,0.2683,-0.1446,13.254,-0.653,0.731
12.316913,102.019,70.977,-70.951,-0.0738,0.2481,0.0792,18.199,-1.015,1.228
12.333580,102.136,70.969,-71.128,0.0389,0.3111,0.0112,15.791,-2.928,1.116
12.350247,102.187,70.947,-71.305,0.3560,-0.1253,0.1397,12.358,-2.967,1.921
12.366914,102.177,70.923,-71.685,0.2092,-0.3954,0.2271,13.545,-4.449,2.611
12.383581,102.072,70.882,-72.118,-0.2908,-0.4876,0.2799,18.756,-8.085,4.152
12.400248,101.964,70.800,-72.726,-0.2774,-0.5138,0.1981,27.977,-10.818,7.220
12.416915,101.869,70.703,-73.591,-0.5458,-0.3061,-0.0983,42.971,-15.557,9.149
12.433582,101.996,70.623,-74.704,-0.4575,0.9395,-0.6415,72.001,-21.259,9.234
12.450249,102.396,70.560,-75.976,-0.6215,0.2311,-0.5774,96.039,-24.123,9.026
12.466916,102.724,70.515,-77.173,-0.2172,-0.2856,-0.5346,87.576,-22.982,7.772
12.483583,102.769,70.474,-78.283,-0.2981,-0.4160,-0.2795,65.504,-21.280,7.258
12.500250,102.441,70.371,-79.674,-0.6657,-0.0386,0.0659,59.018,-26.083,12.047
12.516917,102.126,70.183,-81.425,-0.8601,-0.8935,0.3328,80.077,-32.390,18.514
12.533584,101.827,69.962,-83.295,-1.3658,-1.3238,-0.2120,87.557,-34.786,20.834
12.550251,101.535,69.696,-85.032,-1.3789,-2.3846,-0.4031,80.308,-32.101,22.768
12.566918,101.105,69.424,-86.919,-2.0980,-1.6782,-0.8194,80.405,-35.690,23.708
12.583585,100.597,69.060,-89.119,-2.0786,-1.7496,-0.9001,93.027,-41.978,30.107
12.600252,99.703,68.633,-91.557,-2.7986,-2.3029,-0.8359,82.860,-47.561,34.370
12.616919,98.783,68.084,-94.386,-2.9365,-2.2783,-0.7058,102.672,-56.581,42.411
12.633586,97.675,67.374,-97.730,-3.0396,-3.0258,-0.1404,119.327,-69.247,52.885
12.650253,96.315,66.489,-101.332,-3.6743,-3.9148,0.1492,117.343,-77.663,62.776
12.666920,95.058,65.464,-105.001,-3.7992,-3.7054,0.1432,125.825,-83.180,69.794
12.683587,94.084,64.195,-108.920,-3.9572,-3.7483,0.2328,154.462,-93.692,83.577
12.700254,93.553,62.593,-113.120,-3.4727,-3.6210,0.3531,193.598,-106.272,103.034
12.716921,93.119,60.717,-117.182,-4.2624,-4.6515,1.2169,188.675,-109.093,118.675
12.733588,92.815,58.624,-121.035,-4.3962,-3.3240,1.9111,181.447,-110.186,131.003
12.750255,92.887,56.334,-124.760,-4.5586,-2.9951,2.3171,192.935,-113.339,142.710
12.766922,93.429,53.805,-128.385,-4.3373,-2.6078,2.4923,211.028,-116.169,157.816
12.783589,94.342,51.044,-131.855,-3.8170,-3.1001,3.2240,219.901,-115.635,173.307
12.800256,95.328,48.043,-135.007,-4.9764,-3.3293,4.6934,203.178,-107.363,189.201
12.816923,96.766,44.785,-138.011,-5.0625,-1.5062,5.4514,216.892,-103.271,206.840
12.833590,98.712,41.319,-140.925,-4.7566,-0.7648,5.4661,236.173,-98.932,222.584
12.850257,101.054,37.634,-143.774,-4.4262,-0.3766,5.8354,249.271,-92.421,239.863
12.866924,103.891,33.669,-146.659,-4.4578,0.3007,6.5959,271.058,-86.357,262.004
12.883591,107.245,29.740,-149.334,-3.4761,0.4684,7.2555,285.523,-68.688,263.082
12.900258,110.535,25.669,-151.737,-4.2679,1.2026,8.9133,264.286,-42.177,271.782
12.916925,114.233,21.483,-154.103,-2.2019,2.1183,9.0952,278.571,-25.134,281.178
12.933592,118.587,17.314,-156.383,-1.9336,2.5764,9.6049,306.445,-4.811,280.819
12.950259,122.924,12.931,-158.787,-0.7950,3.9702,10.3271,297.671,14.271,296.613
12.966926,127.092,8.366,-161.196,-0.0024,4.6975,11.7352,276.536,40.246,305.315
12.983593,131.052,3.647,-163.686,1.8487,5.6137,11.2049,253.028,62.568,312.857
13.000260,134.578,-1.094,-166.312,3.1760,6.1734,9.5082,214.888,77.258,315.207
13.016927,137.604,-5.836,-168.949,4.1104,7.7276,8.6448,171.840,94.901,310.584
13.033594,140.785,-10.554,-171.854,6.5049,8.5761,7.5957,165.852,101.045,315.077
13.050261,144.091,-15.257,-174.855,8.6336,9.8583,6.9721,158.056,116.204,310.680
13.066928,147.166,-19.938,-177.970,9.5087,9.3029,4.4905,127.944,130.829,305.204
13.083595,150.308,-24.516,178.747,10.8852,7.4319,2.0000,113.964,139.779,298.101
13.100262,153.846,-28.874,175.231,11.3503,6.8685,-1.2122,117.517,142.387,288.707
13.116929,158.014,-32.896,171.479,12.5329,6.0683,-4.2197,134.571,141.188,274.640
13.133596,162.337,-36.552,167.431,11.1048,4.6558,-6.3283,121.088,138.396,262.108
13.150263,166.580,-40.000,163.113,12.2444,1.5830,-6.2531,94.181,144.564,251.320
13.166930,171.037,-43.100,158.348,9.2644,0.6043,-8.5000,77.847,140.653,246.039
13.183597,176.166,-45.817,153.068,7.3094,0.0803,-11.0874,85.768,136.618,243.042
13.200264,-178.339,-47.999,147.485,5.9512,-0.1023,-11.6506,85.070,126.380,231.430
13.216931,-172.799,-49.648,141.881,3.0649,-1.2371,-12.0833,79.346,115.623,213.278
13.233598,-167.523,-50.867,136.481,1.0646,-2.0748,-11.5626,67.367,107.388,191.820
13.250265,-162.618,-51.768,131.514,-1.3053,-3.4294,-11.2694,61.689,100.171,166.280
13.266932,-158.444,-52.386,127.308,-3.5447,-4.5732,-10.9887,51.369,86.623,134.106
13.283599,-154.851,-52.760,123.987,-4.8844,-5.0655,-10.3473,57.311,68.593,102.492
13.300266,-152.131,-53.057,121.705,-5.1922,-5.6550,-10.2338,53.964,52.782,66.089
13.316933,-150.413,-53.326,120.440,-6.5482,-6.7777,-9.5401,42.218,35.998,32.252
13.333600,-149.810,-53.559,120.157,-7.0702,-8.5183,-8.6355,22.470,17.087,1.901
13.350267,-150.172,-53.739,120.935,-7.3684,-9.3045,-9.0812,15.699,-4.582,-29.298
13.366934,-151.626,-53.857,122.823,-7.2481,-9.2191,-10.4870,3.966,-26.416,-61.920
13.383601,-154.203,-53.898,125.891,-5.9508,-8.7432,-11.1781,-6.164,-47.312,-97.771
13.400268,-157.837,-53.833,130.139,-4.6944,-8.2559,-12.4885,-12.569,-64.785,-135.738
13.416935,-162.600,-53.546,135.438,-2.6771,-7.8401,-13.8245,-29.857,-80.006,-171.367
13.433602,-168.342,-52.886,141.646,-0.3610,-6.8390,-15.7865,-46.490,-94.367,-206.014
13.450269,-175.034,-51.699,148.542,2.8058,-5.7737,-17.4834,-74.476,-107.023,-240.109
13.466936,177.620,-49.840,155.884,6.6138,-5.1441,-18.2641,-99.736,-117.755,-275.962
13.483603,169.891,-47.159,163.370,10.1550,-4.4552,-19.1384,-127.412,-127.399,-313.282
13.500270,162.101,-43.600,170.858,14.0801,-3.4101,-20.4965,-147.647,-130.608,-357.676
13.516937,154.432,-39.049,178.302,18.5113,-1.7808,-21.9834,-165.187,-129.174,-412.379
13.533604,147.194,-33.320,-174.464,24.1752,1.9118,-23.5612,-177.812,-128.898,-473.113
13.550271,140.196,-26.174,-167.377,32.0821,8.3449,-24.6835,-208.538,-126.555,-550.825
13.566938,133.674,-17.296,-160.314,40.5727,18.3120,-23.8104,-233.675,-119.882,-650.720
13.583605,127.972,-6.762,-153.078,50.9914,34.0718,-15.7342,-250.766,-91.142,-755.079
13.600272,123.365,4.653,-145.506,58.5510,51.3690,8.1423,-267.281,-29.477,-820.219
13.616939,120.031,16.451,-138.104,50.7000,67.1954,40.3709,-281.056,0.394,-830.349
13.633606,117.099,28.023,-130.544,23.3938,75.3006,64.1999,-347.506,37.667,-808.958
13.650273,113.471,39.798,-121.325,-19.6798,68.8683,87.5186,-526.262,114.696,-832.914
13.666940,109.889,51.600,-109.663,-58.1467,42.3630,91.3433,-716.066,194.373,-835.926
13.683607,108.100,62.180,-91.836,-75.0645,-6.4328,82.4077,-1004.829,348.509,-784.955
13.700274,112.798,67.797,-60.585,-44.4325,-35.7607,59.5799,-1420.486,626.052,-582.083
13.716941,124.231,63.987,-32.118,-72.9622,-24.7122,51.5847,-876.022,715.582,-135.557
13.733608,127.719,56.512,-10.730,-42.0405,-40.9820,20.8119,-906.503,774.747,-15.499
13.750275,129.678,46.154,1.377,-30.5548,-22.2170,0.9640,-450.991,741.344,199.062
13.766942,130.235,35.365,8.514,-22.5925,-43.8333,-27.9697,-246.712,663.954,287.011
13.783609,132.043,25.140,13.982,3.8197,-31.7392,-24.6685,-57.457,616.793,274.988
13.800276,132.655,14.380,18.210,6.1931,-19.4125,-10.8331,-49.292,611.202,315.963
13.816943,131.865,2.762,21.616,-2.6589,-18.1517,5.0247,-77.793,618.358,379.668
13.833610,131.115,-9.747,23.713,-11.2798,-19.7546,7.7671,-37.188,591.222,478.809
13.850277,132.202,-22.080,24.592,-20.2498,-20.0467,-2.3710,79.443,529.708,519.159
13.866944,136.128,-33.761,24.364,-20.1326,-13.8062,-15.1985,228.268,479.531,511.342
13.883611,141.543,-44.386,23.839,-10.7961,-4.8818,-15.8762,304.072,463.814,438.247
13.900278,147.686,-54.540,23.091,-8.8418,-7.7221,-12.7228,333.368,479.822,376.839
13.916945,155.571,-63.202,20.663,-6.5117,-14.2360,-18.4669,347.303,421.429,313.490
13.933612,168.758,-70.147,13.359,0.2918,-14.7340,-24.2526,387.377,342.754,292.795
13.950279,-169.462,-74.776,-2.191,6.0609,-13.2799,-22.8982,415.441,273.586,282.418
13.966946,-139.697,-76.169,-25.457,7.6657,-6.8871,-20.1779,432.852,223.347,279.378
13.983613,-112.750,-74.444,-45.720,14.4157,-1.8986,-16.4652,439.544,187.358,263.832
14.000280,-93.761,-71.586,-58.709,22.2076,-0.4938,-17.6988,393.178,182.081,218.245
14.016947,-82.279,-68.671,-65.507,17.0778,6.5115,-16.6118,304.963,144.457,169.837
14.033614,-75.050,-65.776,-68.035,11.5491,9.5694,-8.9721,293.717,91.610,158.902
14.050281,-70.553,-63.307,-67.998,8.3384,10.0227,-4.2998,271.721,42.776,141.971
14.150283,-61.002,-59.847,-61.296,3.5221,7.1541,4.6506,76.682,-51.709,-24.115
14.166950,-61.142,-60.826,-59.785,5.7224,5.5073,3.1188,70.279,-67.864,-29.612
14.183617,-62.663,-61.788,-57.147,7.7894,5.0598,0.2192,47.532,-94.400,-14.994
14.200284,-65.740,-62.713,-53.361,7.1500,2.7362,-2.0104,16.260,-119.530,-3.824
14.216951,-70.324,-63.451,-48.494,7.1542,2.6560,-1.6856,-14.721,-139.353,8.478
14.233618,-76.213,-63.781,-42.770,7.1341,1.7113,-3.0747,-45.766,-151.969,25.130
14.250285,-82.768,-63.781,-36.737,4.4582,0.8580,-2.8930,-68.609,-157.396,29.282
14.266952,-89.625,-63.388,-30.808,4.6048,0.6101,-2.7950,-92.830,-156.516,34.113
14.283619,-96.646,-62.697,-25.181,4.1409,0.0598,-3.2019,-120.364,-155.256,33.102
14.300286,-103.479,-61.763,-20.053,3.2734,-0.8279,-2.8339,-137.788,-151.119,30.170
14.316953,-110.228,-60.671,-15.276,2.7581,-0.7875,-2.9397,-153.779,-151.269,22.844
14.333620,-116.759,-59.420,-10.950,0.4169,-0.7958,-2.2765,-167.023,-148.975,17.268
14.350287,-123.031,-58.100,-6.950,-0.5555,-0.8376,-2.2119,-171.176,-147.600,6.724
14.366954,-129.119,-56.692,-3.343,-0.2892,-1.0948,-3.1942,-182.996,-144.174,-0.292
14.383621,-135.182,-55.146,0.094,0.0300,-2.0784,-4.5601,-192.963,-148.165,-8.680
14.400288,-140.684,-53.466,3.278,-2.7764,-2.3396,-3.5354,-175.086,-149.678,-15.102
14.416955,-145.561,-51.719,6.079,-0.7585,-3.2826,-4.8479,-159.078,-145.347,-18.674
14.433622,-150.402,-49.914,8.694,-0.3231,-4.4786,-5.8269,-168.934,-144.606,-26.490
14.450289,-155.196,-48.117,11.104,-1.5971,-4.4930,-5.3677,-178.487,-139.451,-34.965
14.466956,-159.827,-46.150,13.454,-1.8477,-3.0299,-4.3950,-174.527,-145.978,-43.388
14.483623,-163.850,-43.980,15.395,-2.8615,-3.1071,-3.5410,-158.955,-149.543,-37.478
14.500290,-167.536,-41.651,17.161,-3.5755,-4.1378,-3.5419,-149.142,-154.834,-40.640
14.516957,-171.276,-39.232,18.733,-2.8602,-4.0176,-4.6465,-163.239,-156.068,-43.790
14.533624,-175.098,-36.672,20.162,-3.1353,-4.5563,-3.8136,-176.554,-160.736,-48.821
14.550291,-178.403,-33.932,21.443,-4.8549,-0.6052,-1.1406,-153.869,-167.887,-53.202
14.566958,178.873,-31.175,22.213,-2.7545,-3.2504,-1.5353,-138.549,-165.777,-38.169
14.583625,176.176,-28.346,22.848,-3.1403,-5.5815,-0.7260,-142.876,-168.321,-40.300
14.600292,173.277,-25.558,23.414,-3.1454,-3.8226,-0.3086,-158.536,-163.970,-45.436
14.616959,170.167,-22.846,23.949,-1.5534,-2.7648,-0.4872,-173.426,-156.938,-52.291
14.633626,167.438,-20.254,24.337,-3.3276,-1.6806,0.5796,-155.093,-148.559,-51.398
14.650293,165.073,-17.645,24.562,-4.0410,-1.4600,1.9677,-137.499,-149.155,-49.505
14.666960,163.167,-15.045,24.779,-3.7694,0.1080,1.8140,-110.669,-146.742,-54.590
14.683627,161.183,-12.422,24.989,-1.3697,-4.2728,0.3788,-116.066,-146.215,-59.745
14.700294,158.713,-9.796,25.241,-2.2530,-3.1758,1.4601,-145.260,-143.082,-67.914
14.716961,156.574,-7.308,25.239,-4.0437,-1.9120,2.6439,-128.306,-138.236,-56.603
14.733628,154.526,-4.904,24.995,-2.8388,-1.0519,4.2168,-124.371,-137.447,-46.362
14.750295,152.776,-2.536,24.520,-3.4467,-0.9744,3.8505,-106.830,-140.029,-37.460
14.766962,151.366,-0.097,23.801,-2.4491,-1.6518,3.8305,-85.583,-149.585,-30.382
14.783629,150.484,2.295,23.012,-2.8669,-0.0182,2.9304,-52.002,-148.544,-28.290
14.800296,149.388,4.515,22.160,-1.6567,-0.8923,3.2399,-62.732,-140.931,-22.442
14.816963,148.075,6.642,21.426,-1.6259,-0.1182,3.1807,-74.461,-131.887,-28.711
14.833630,146.426,8.702,20.670,-1.1001,-0.4691,3.4097,-92.872,-128.332,-28.975
14.850297,144.734,10.824,19.808,-1.1163,0.0576,3.1568,-92.729,-133.988,-29.818
14.866964,143.569,12.943,18.748,-1.4705,1.7170,3.0266,-56.800,-139.521,-23.929
14.883631,142.646,14.891,17.572,-0.4889,1.2078,3.3186,-38.455,-134.677,-15.325
14.900298,141.919,16.710,16.362,-1.1047,0.3516,2.4556,-23.799,-129.169,-11.412
14.916965,140.908,18.400,15.145,-0.3399,-0.3278,2.7455,-38.703,-122.750,-8.783
14.933632,139.700,20.061,13.966,-0.3293,0.4370,2.9930,-49.153,-119.406,-12.133
14.950299,138.240,21.747,12.708,0.6810,1.0732,3.7291,-60.707,-122.700,-13.182
14.966966,137.004,23.417,11.315,0.9577,1.7013,2.6223,-42.032,-126.097,-10.410
14.983633,136.033,24.898,9.833,1.5309,0.4967,3.5318,-21.914,-120.365,-2.230
15.000300,135.020,26.218,8.386,0.9011,1.0961,3.3986,-23.347,-111.517,0.500
15.016967,133.906,27.462,6.883,0.8305,1.4098,2.6088,-26.137,-109.782,3.148
15.033634,132.681,28.681,5.370,0.7319,0.8008,1.9556,-30.764,-108.559,1.774
15.050301,131.375,29.879,3.846,0.8528,1.1401,2.0191,-33.690,-107.449,0.063
15.066968,130.804,31.018,2.270,0.8312,2.8666,1.1876,13.611,-106.506,2.126
15.083635,130.670,31.890,0.734,1.4844,0.2287,1.7347,39.992,-93.772,11.744
15.100302,130.192,32.618,-0.744,0.3562,-1.0178,0.7945,18.646,-85.593,15.431
15.116969,129.212,33.173,-2.193,0.7513,-0.4067,1.6765,-11.587,-77.553,21.066
15.133636,128.166,33.759,-3.619,-0.0543,0.4098,0.7749,-15.630,-77.792,17.262
15.150303,127.114,34.365,-5.099,0.3412,-0.3810,1.0097,-13.450,-80.573,16.186
15.166970,126.208,35.029,-6.686,0.0869,-0.0496,1.0839,-0.142,-86.727,14.826
15.183637,125.742,35.718,-8.483,0.3824,0.7621,0.5422,34.375,-95.552,18.212
15.200304,125.335,36.337,-10.364,0.8856,0.1077,0.4668,41.970,-95.987,22.951
15.216971,124.316,36.791,-12.254,0.1208,-0.7319,-0.2805,6.368,-90.434,29.697
15.233638,122.842,37.118,-14.049,0.8701,-1.6075,0.9366,-23.724,-82.687,31.292
15.250305,121.291,37.477,-15.733,0.3312,-0.7778,0.3260,-31.902,-79.706,24.455
15.266972,119.483,37.792,-17.358,1.2678,-0.4934,0.1039,-48.903,-76.325,22.828
15.283639,117.680,38.114,-18.882,0.7116,0.2636,-1.0970,-51.985,-72.694,17.580
15.300306,115.931,38.470,-20.413,0.5214,0.3702,-1.4070,-48.038,-74.102,13.474
15.316973,114.590,38.876,-22.128,-0.2381,-0.5799,-0.9153,-16.215,-83.196,12.288
15.333640,113.675,39.338,-23.838,-0.2767,0.7149,-1.0722,9.855,-84.163,7.311
15.350307,112.497,39.749,-25.495,0.9776,-0.7676,1.0059,-7.437,-80.352,7.406
15.366974,110.730,40.256,-27.160,-0.4132,-1.4994,0.5763,-41.851,-82.499,-0.099
15.383641,108.965,40.793,-28.934,-0.5325,-0.8691,-0.1337,-36.695,-87.215,-2.759
15.400308,107.884,41.308,-30.920,-2.0700,-1.0877,-0.6290,13.357,-95.151,-0.899
15.416975,107.132,41.631,-33.056,-1.0849,-0.9827,0.6146,39.710,-97.563,10.433
15.433642,106.095,42.014,-35.126,-0.0182,-1.7895,0.7964,20.625,-95.377,4.506
15.450309,104.297,42.377,-37.177,-0.4853,-1.5559,1.5827,-25.262,-93.831,2.920
15.466976,101.855,42.775,-39.209,-1.0820,-1.5263,1.2839,-64.037,-92.997,-2.953
15.483643,99.297,43.159,-41.318,-1.5119,-0.3027,0.1525,-67.206,-95.405,-5.629
15.500310,97.428,43.541,-43.598,-1.9659,0.2676,-0.8643,-18.191,-101.868,-8.149
15.516977,96.313,43.954,-45.964,-2.7424,0.2801,-1.3372,31.267,-104.894,-12.321
15.533644,95.130,44.430,-48.361,-1.9530,-0.2497,-0.9019,29.241,-105.544,-18.077
15.550311,93.557,45.087,-50.672,-2.1857,0.1991,-1.0056,3.269,-101.257,-31.803
15.566978,91.592,45.825,-52.948,-2.0005,-0.0575,-0.6631,-20.620,-97.740,-39.929
15.583645,89.486,46.586,-55.224,-1.8594,-0.2227,-0.3435,-27.757,-95.014,-44.687
15.600312,87.670,47.316,-57.564,-2.0861,-0.4601,0.0756,-6.358,-94.804,-46.096
15.616979,86.281,48.014,-59.915,-1.4861,-1.0665,1.0543,20.889,-92.723,-46.819
15.633646,84.959,48.661,-62.228,-1.4107,-1.0131,0.9573,24.385,-89.063,-45.674
15.650313,83.450,49.195,-64.448,-0.5007,-1.4443,1.5933,9.839,-83.855,-40.680
15.666980,81.885,49.618,-66.600,-0.4165,-1.0838,1.3733,4.125,-80.128,-35.867
15.683647,80.281,49.965,-68.531,0.1795,-0.3667,0.5310,-7.805,-70.683,-32.125
15.700314,78.747,50.257,-70.149,0.4146,0.9580,-0.6420,-17.556,-58.070,-28.478
15.716981,77.531,50.549,-71.428,0.5973,1.5593,-0.8437,-13.808,-44.315,-27.188
15.733648,76.568,50.856,-72.494,0.2265,1.6219,-0.5516,-8.309,-35.396,-26.981
15.750315,75.929,51.160,-73.469,-0.2009,1.2531,0.0858,7.058,-31.465,-26.442
15.766982,75.283,51.447,-74.467,-0.5125,0.5445,0.6107,7.911,-32.014,-25.936
15.783649,74.368,51.718,-75.406,-0.2778,0.4759,0.7070,-10.741,-29.584,-24.800
15.800316,73.420,51.954,-76.292,-0.1592,0.4117,0.6929,-15.179,-27.687,-22.615
15.816983,72.687,52.116,-77.164,-0.1996,0.4559,0.5932,-2.727,-28.016,-18.624
15.833650,72.103,52.198,-78.054,-0.4195,0.1327,0.4726,7.092,-29.782,-14.545
15.850317,71.589,52.239,-78.966,-0.6754,0.5558,0.1233,12.358,-31.126,-12.726
15.866984,71.102,52.263,-79.926,-0.9861,0.3372,0.1376,16.229,-32.977,-12.566
15.883651,70.507,52.292,-80.875,-0.9743,0.3697,0.0454,9.307,-32.384,-13.023
15.900318,69.610,52.346,-81.789,-0.6253,0.2872,-0.0670,-10.484,-30.400,-14.425
15.916985,68.883,52.409,-82.709,-0.3536,0.7180,-0.3373,0.046,-30.227,-15.366
15.933652,68.408,52.444,-83.586,0.0502,0.5328,-0.3727,13.096,-29.113,-13.545
15.950319,68.177,52.491,-84.371,0.4225,0.4476,-0.4769,23.478,-25.668,-13.141
15.966986,68.018,52.553,-85.025,0.6395,0.3366,-0.3964,21.530,-20.781,-12.303
15.983653,67.791,52.626,-85.507,0.9998,0.2470,-0.3198,9.289,-14.648,-10.581
16.000320,67.591,52.693,-85.867,1.0953,0.5479,-0.4010,5.083,-10.637,-8.602
16.016987,67.525,52.733,-86.138,1.3112,0.5823,-0.3996,8.948,-8.232,-5.909
16.033654,67.630,52.767,-86.306,1.3173,0.7683,-0.5759,14.249,-4.930,-4.116
16.050321,67.959,52.812,-86.428,1.1863,0.9896,-0.7339,25.461,-3.120,-4.096
16.066988,68.494,52.902,-86.528,1.0524,0.9853,-0.7369,36.798,-1.455,-6.248
16.083655,69.045,53.047,-86.591,1.2984,0.8115,-0.5095,36.043,0.932,-8.879
16.100322,69.702,53.229,-86.623,1.4248,0.7134,-0.1611,40.882,2.695,-10.498
16.116989,70.499,53.419,-86.561,1.5840,0.4152,0.3336,44.712,5.876,-9.910
16.133656,71.431,53.605,-86.440,1.7600,0.2078,0.6804,50.041,7.612,-9.067
16.150323,72.379,53.755,-86.315,1.6075,-0.0632,0.8853,50.752,6.867,-7.064
16.166990,73.116,53.865,-86.133,1.5427,-0.4211,0.9069,35.356,7.986,-4.312
16.183657,73.710,53.947,-85.930,1.3286,-0.0305,0.7612,25.711,8.138,-2.641
16.200324,74.321,54.011,-85.753,1.2176,0.1615,0.7450,28.041,6.887,-1.896
16.216991,75.097,54.069,-85.574,1.2212,0.4034,0.6316,37.787,6.840,-1.627
16.233658,76.033,54.145,-85.362,1.2656,0.4374,0.4845,45.764,8.208,-2.527
16.250325,77.037,54.262,-85.029,1.4077,0.4414,0.4085,43.948,12.806,-4.044
16.266992,77.940,54.427,-84.600,1.0421,0.3071,0.3500,33.259,16.566,-6.330
16.283659,78.753,54.642,-84.079,1.2675,0.2004,0.2347,23.229,20.175,-8.950
16.300326,79.614,54.884,-83.511,1.0863,0.6584,-0.0293,23.734,21.839,-10.489
16.316993,80.679,55.140,-82.978,1.0059,0.7984,-0.2454,37.698,20.443,-11.927
16.333660,81.979,55.401,-82.576,1.2313,1.1474,-0.5637,58.082,15.735,-13.364
16.350327,83.488,55.699,-82.293,0.9453,1.0781,-0.9556,76.505,11.529,-16.440
16.366994,84.763,56.071,-82.001,1.0689,0.3840,-0.8370,61.903,11.819,-21.159
16.383661,85.589,56.458,-81.801,0.6033,0.4704,-0.9689,39.480,8.358,-22.468
16.400328,86.314,56.855,-81.699,1.1061,0.3080,-0.9292,38.310,4.764,-23.463
16.416995,86.962,57.237,-81.703,0.8370,0.2962,-0.7253,38.981,0.967,-22.799
16.433662,87.719,57.599,-81.787,0.9532,0.4896,-0.8337,49.623,-1.995,-21.741
16.450329,88.515,57.963,-81.934,0.9907,0.3900,-0.7955,55.115,-4.243,-21.877
16.466996,89.198,58.348,-82.063,0.8066,0.2878,-0.6748,47.518,-3.927,-23.079
16.483663,89.611,58.745,-82.062,1.0138,0.1409,-0.4146,24.642,-0.003,-23.762
16.500330,89.686,59.155,-81.935,0.9507,-0.0997,-0.2109,-2.062,3.788,-24.462
16.516997,89.770,59.561,-81.779,0.8790,0.5211,-0.1311,-3.118,4.573,-24.237
16.533664,90.063,59.939,-81.605,0.5559,0.6778,0.0388,8.528,4.957,-22.570
16.550331,90.505,60.299,-81.412,0.1363,0.8091,0.5652,16.448,5.346,-21.548
16.566998,90.999,60.691,-81.428,-1.0227,2.4719,2.9842,30.403,-1.098,-23.403
16.583665,91.400,61.074,-82.027,-3.5087,5.5667,1.9309,55.321,-18.253,-22.498
16.600332,91.336,60.981,-82.768,-2.6593,-1.2422,3.1139,34.955,-21.660,6.270
16.616999,90.905,61.043,-83.523,-0.0089,-0.3043,1.6518,13.672,-22.253,-3.128
16.633666,90.311,61.034,-84.046,1.0365,-0.9286,1.4649,-8.312,-15.414,0.834
16.650333,89.527,61.088,-84.313,-0.0629,-1.1758,1.0632,-33.177,-7.998,-3.058
16.667000,88.554,61.149,-84.350,-0.2471,-0.5122,0.3437,-56.493,-1.257,-3.576
16.683667,87.547,61.099,-84.473,-0.3922,0.7010,-0.2145,-54.089,-3.901,3.070
16.700334,86.654,60.905,-84.845,-0.7235,0.2678,-0.1879,-34.195,-11.635,11.221
16.717001,85.782,60.632,-85.478,-0.8153,0.1977,-0.1631,-19.297,-19.824,15.243
16.733668,84.795,60.254,-86.340,-0.6421,0.1305,-0.1169,-14.303,-27.506,20.628
16.750335,83.534,59.767,-87.343,-0.4785,-0.2121,0.1038,-23.707,-33.101,26.160
16.767002,82.036,59.220,-88.403,-0.5626,-0.1707,0.3666,-35.202,-36.360,28.686
16.783669,80.429,58.656,-89.524,-0.3499,-0.0207,0.5309,-38.932,-39.666,28.297
16.800336,78.877,58.108,-90.772,-0.2549,-0.4055,0.6785,-29.478,-44.717,25.419
16.817003,77.423,57.574,-92.092,-0.5882,-1.0052,0.3585,-20.278,-48.065,22.863
16.833670,75.996,57.017,-93.349,-0.5720,-1.2012,0.3471,-22.280,-47.519,23.282
16.850337,74.662,56.415,-94.467,-0.6959,-1.2894,0.4544,-24.102,-44.958,25.771
16.867004,73.530,55.804,-95.445,-0.5763,-1.4099,0.1931,-19.267,-41.705,26.385
16.883671,72.677,55.173,-96.368,-0.6971,-1.0596,-0.2230,-5.639,-41.221,27.233
16.900338,72.067,54.516,-97.166,-0.7008,-1.2629,-0.2948,2.420,-38.361,29.283
16.917005,71.462,53.879,-97.863,-0.6205,-1.1708,-0.3339,-2.477,-35.394,28.787
16.933672,70.804,53.325,-98.428,-0.0447,-0.8836,-0.3270,-12.249,-29.950,24.969
16.950339,70.264,52.851,-98.933,0.1899,-0.6447,-0.3496,-8.256,-26.795,20.860
16.967006,69.655,52.434,-99.435,-0.3953,-0.8957,0.2846,-12.673,-25.916,17.295
16.983673,68.933,52.073,-99.927,-0.2901,-0.6406,0.3874,-20.028,-24.774,13.957
17.000340,68.527,51.729,-100.378,-0.0643,0.1242,0.0625,-3.140,-23.193,13.177
17.017007,68.580,51.373,-100.947,0.4169,0.3010,-0.0447,29.860,-27.740,12.227
17.033674,68.768,51.068,-101.603,-0.0136,-0.2987,0.2863,41.928,-29.824,8.130
17.050341,68.815,50.804,-102.274,-0.1344,-0.5760,0.5338,33.989,-29.542,5.631
17.067008,68.887,50.603,-102.965,-0.2911,-0.8018,0.3340,36.335,-29.017,1.814
17.083675,68.988,50.477,-103.700,-0.7472,-0.7768,0.0098,40.118,-29.055,-2.994
17.100342,69.105,50.349,-104.432,-1.0226,-0.9842,-0.0363,40.734,-29.027,-2.798
17.117009,69.311,50.175,-105.139,-1.0567,-0.8246,-0.4519,44.982,-29.242,0.145
17.133676,69.673,49.974,-105.854,-0.3928,-0.3765,-1.0034,54.557,-30.173,1.703
17.150343,70.166,49.737,-106.576,-0.2312,-0.7476,-0.7817,62.604,-31.235,3.765
17.167010,70.600,49.521,-107.236,-0.2643,-0.8469,-0.7192,56.183,-28.675,3.602
17.183677,71.080,49.298,-107.846,-0.1779,-0.6058,-0.8054,56.548,-27.028,4.830
17.200344,71.723,49.072,-108.384,-0.2088,-0.6547,-0.3690,63.037,-24.493,6.094
17.217011,72.551,48.868,-108.839,-0.1061,-0.1169,-0.2206,70.222,-20.955,6.131
17.233678,73.677,48.691,-109.220,-0.0416,0.4461,-0.0219,84.698,-17.660,5.823
17.250345,75.067,48.537,-109.491,0.2191,0.7291,0.4467,95.543,-12.995,5.947
17.267012,76.707,48.467,-109.674,0.2787,0.5903,1.0595,106.654,-8.263,2.301
17.283679,78.137,48.539,-109.735,-0.5254,0.2903,1.9330,88.472,-1.581,-4.720
17.300346,79.139,48.780,-109.636,-0.2706,0.5561,1.6460,55.620,6.532,-13.388
17.317013,80.020,49.109,-109.494,0.5539,0.9846,1.2977,46.356,8.962,-18.443
17.333680,81.270,49.405,-109.357,1.7009,0.7278,-0.3148,68.733,8.014,-16.616
17.350347,83.137,49.570,-109.317,1.4820,0.3102,-1.5534,110.161,2.733,-9.531
17.367014,85.681,49.540,-109.475,1.2499,0.6214,-1.7429,159.788,-6.468,1.220
17.383681,88.423,49.337,-109.784,0.5797,0.0653,-1.3256,178.560,-12.895,11.602
17.400348,90.759,49.160,-110.089,0.5919,-1.1387,-0.9302,153.931,-12.200,10.540
17.417015,92.757,48.997,-110.298,1.2283,-0.5911,-1.3954,129.281,-8.118,10.101
17.433682,94.730,48.727,-110.411,0.9580,-0.7160,-1.3618,123.458,-3.650,16.487
17.450349,96.796,48.282,-110.371,0.8143,-0.8264,-1.0704,122.116,4.012,26.464
17.467016,98.802,47.641,-110.167,0.1903,-0.9560,0.0124,111.270,13.040,37.071
17.483683,100.864,46.921,-109.708,0.2692,-0.0985,0.6487,103.432,25.521,39.419
17.500350,102.492,46.147,-109.001,-0.1176,0.2381,1.5292,66.875,37.669,39.591
17.517017,103.187,45.423,-107.990,-0.2143,-0.0011,2.1630,-1.781,50.582,32.999
17.533684,102.884,44.797,-106.883,-0.0065,0.3191,1.9005,-65.316,53.863,26.103
17.550351,101.948,44.226,-105.783,0.9122,0.7649,1.1423,-102.421,53.053,23.383
17.567018,100.942,43.634,-104.715,1.6954,1.1365,0.1844,-104.873,51.974,25.713
17.583685,100.243,43.029,-103.733,1.4088,1.3921,-0.2642,-82.377,48.497,27.850
17.600352,99.610,42.338,-102.771,0.9153,0.1587,0.3033,-77.215,48.664,33.623
17.617019,99.162,41.709,-101.841,0.8077,-0.0221,0.6235,-64.253,46.705,30.537
17.633686,98.979,41.130,-100.915,0.8993,-0.1061,0.1989,-47.837,46.302,27.838
17.650353,99.242,40.676,-100.008,1.1390,-0.0985,-0.1493,-19.899,44.616,20.471
17.667020,99.838,40.339,-99.164,1.3724,-0.3131,-0.8703,2.789,40.949,13.633
17.683687,100.564,40.030,-98.333,1.4404,-0.7601,-0.9823,11.292,40.406,11.646
17.700354,101.384,39.765,-97.448,1.6209,-0.7432,-1.0429,15.097,42.627,7.918
17.717021,102.247,39.555,-96.582,1.4886,-0.3925,-1.3723,18.566,41.280,4.260
17.733688,103.092,39.393,-95.807,1.2334,-0.1720,-1.7092,21.039,36.722,1.721
17.750355,103.944,39.273,-95.114,0.9624,-0.3174,-2.0510,24.700,32.467,-0.467
17.767022,104.882,39.250,-94.481,0.9484,-0.1849,-2.4096,32.227,28.331,-5.826
17.783689,105.846,39.302,-93.928,0.8562,-0.0573,-2.4902,36.723,23.448,-9.702
17.800356,106.951,39.437,-93.429,0.7742,0.1591,-2.2568,47.277,19.413,-14.215
17.817023,108.240,39.701,-92.978,0.8295,0.5172,-1.6960,60.033,14.567,-21.277
17.833690,109.686,40.102,-92.563,0.5384,0.7526,-0.8461,70.658,9.761,-28.825
17.850357,111.189,40.693,-92.148,0.3139,1.0280,-0.4574,73.977,4.878,-39.672
17.867024,112.678,41.402,-91.722,0.2709,0.8041,0.0447,72.497,1.496,-46.518
17.883691,114.086,42.147,-91.278,0.1761,0.5418,0.2916,66.655,-0.014,-48.675
17.900358,115.269,42.916,-90.843,-0.1377,0.0206,0.3584,53.269,-2.270,-49.796
17.917025,116.115,43.680,-90.427,-0.5416,-0.2827,0.2680,33.562,-3.946,-48.958
17.933692,116.486,44.386,-90.035,-1.1183,-0.3871,0.4730,5.839,-4.074,-45.288
17.950359,116.302,45.016,-89.629,-1.3575,-0.1878,0.5743,-28.263,-1.753,-41.360
17.967026,115.650,45.610,-89.207,-1.2785,0.2364,0.4682,-57.161,-0.036,-39.684
17.983693,114.704,46.240,-88.739,-1.3264,0.5249,0.5158,-76.952,1.166,-42.345
18.000360,113.286,46.919,-88.278,-1.5701,0.0209,0.6734,-105.274,0.434,-44.845
18.017027,111.603,47.676,-87.818,-1.7340,-0.0789,0.6476,-121.302,-0.434,-48.977
18.033694,109.891,48.470,-87.445,-1.4117,0.1686,0.0641,-119.436,-3.253,-49.769
18.050361,108.462,49.274,-87.215,-1.3516,0.4266,-0.4547,-96.195,-7.580,-48.418
18.067028,107.307,50.049,-87.147,-1.5509,0.1426,-0.2438,-72.439,-12.090,-44.998
18.083695,106.454,50.799,-87.185,-1.6703,0.0707,0.0732,-49.456,-14.731,-42.515
18.100362,105.878,51.503,-87.304,-1.7383,-0.1035,0.1528,-29.104,-16.293,-39.248
18.117029,105.482,52.174,-87.445,-1.9624,-0.6160,0.5661,-17.147,-16.161,-37.305
18.133696,105.194,52.803,-87.553,-2.1118,-0.6862,0.9450,-12.214,-13.994,-35.307
18.150363,104.947,53.362,-87.621,-2.1052,-0.5674,1.1013,-11.536,-11.307,-31.695
18.167030,104.744,53.820,-87.632,-1.9958,-0.6223,1.2977,-11.707,-7.551,-26.394
18.183697,104.517,54.153,-87.567,-1.8670,-0.7228,1.4967,-16.806,-2.977,-19.889
18.200364,104.240,54.359,-87.481,-1.8509,-0.5919,1.3731,-20.866,-0.259,-12.739
18.217031,103.897,54.469,-87.430,-1.7971,-0.4298,1.0331,-23.144,0.039,-6.799
18.233698,103.471,54.506,-87.471,-1.6602,-0.2464,0.7676,-23.556,-1.994,-1.852
18.250365,103.060,54.506,-87.615,-1.4709,0.0462,0.5072,-17.631,-4.959,1.113
18.267032,102.731,54.497,-87.900,-1.2664,0.1534,0.3556,-5.873,-9.590,2.762
18.283699,102.530,54.476,-88.322,-0.9927,-0.0423,0.2216,8.518,-14.082,4.441
18.300366,102.415,54.446,-88.830,-0.7265,-0.3008,0.0536,17.876,-16.907,5.547
18.317033,102.306,54.400,-89.372,-0.5498,-0.4328,-0.0968,19.850,-17.887,6.718
18.333700,102.144,54.332,-89.922,-0.5909,-0.4183,-0.1648,17.117,-17.936,7.999
18.350367,101.958,54.273,-90.453,-0.6228,-0.3327,-0.2564,14.679,-17.412,7.309
18.367034,101.677,54.227,-90.954,-0.6509,-0.4571,-0.2399,7.560,-16.641,6.246
18.383701,101.238,54.203,-91.408,-0.7724,-0.4791,-0.2472,-4.289,-15.305,4.532
18.400368,100.728,54.210,-91.794,-0.5188,-0.2524,-0.4131,-11.778,-13.357,2.141
18.417035,100.249,54.240,-92.139,-0.2574,-0.0322,-0.3374,-11.972,-12.210,0.338
18.433702,99.819,54.280,-92.439,-0.2466,-0.0232,-0.0242,-11.206,-10.729,-0.572
18.450369,99.434,54.350,-92.704,-0.3374,0.0575,0.1261,-10.197,-9.832,-2.666
18.467036,99.017,54.438,-92.967,-0.3524,-0.0557,0.2146,-12.150,-9.893,-3.765
18.483703,98.540,54.532,-93.221,-0.3692,-0.0817,0.3155,-16.204,-9.575,-4.275
18.500370,97.977,54.621,-93.498,-0.3387,-0.0080,0.4871,-20.280,-10.248,-3.982
18.517037,97.364,54.707,-93.816,-0.1304,0.0534,0.6667,-21.230,-11.581,-3.660
18.533704,96.743,54.782,-94.198,0.0612,0.1196,0.6675,-18.533,-13.645,-2.915
18.550371,96.240,54.820,-94.638,0.2210,0.1257,0.5124,-8.594,-15.339,-0.633
18.567038,95.873,54.806,-95.099,0.1335,0.1231,0.4071,0.521,-15.711,2.502
18.583705,95.560,54.738,-95.524,-0.0237,-0.1067,0.2945,2.088,-14.204,5.500
18.600372,95.250,54.626,-95.882,-0.0737,-0.1197,0.1687,-1.066,-11.693,7.798
18.617039,94.935,54.489,-96.193,-0.0219,-0.0954,0.0632,-3.725,-10.030,9.114
18.633706,94.638,54.349,-96.471,0.0173,0.0292,0.0332,-4.271,-8.933,9.075
18.650373,94.337,54.217,-96.726,0.0309,0.0007,0.0373,-5.610,-8.262,8.561
18.667040,94.085,54.109,-96.932,0.0873,0.0423,0.0260,-5.123,-6.724,6.967
18.683707,93.873,54.019,-97.107,0.0301,0.0872,-0.0071,-4.199,-5.751,5.735
18.700374,93.662,53.955,-97.243,-0.1135,-0.0130,-0.0935,-6.072,-4.509,4.153
18.717041,93.408,53.901,-97.318,-0.1674,-0.1530,-0.0865,-11.546,-2.443,3.334
18.733708,93.117,53.858,-97.382,-0.0892,-0.0308,-0.1120,-14.349,-2.113,2.677
18.750375,92.816,53.813,-97.447,-0.0345,0.0204,-0.1237,-14.909,-2.125,2.754
18.767042,92.530,53.765,-97.496,-0.0171,0.0237,0.0154,-14.810,-1.588,2.921
18.783709,92.273,53.723,-97.512,-0.1208,-0.0085,0.1432,-14.641,-0.439,2.488
18.800376,91.989,53.697,-97.463,-0.2997,-0.2417,0.3034,-19.363,1.793,1.502
18.817043,91.592,53.680,-97.324,-0.4190,-0.4234,0.5000,-30.561,4.988,0.811
18.833710,91.058,53.676,-97.092,-0.3760,-0.4367,0.6002,-43.228,8.277,-0.024
18.850377,90.348,53.702,-96.832,-0.1157,-0.0102,0.5280,-55.160,9.231,-1.691
18.867044,89.471,53.686,-96.522,0.3750,-0.0599,0.1969,-67.633,11.045,0.953
18.883711,88.664,53.656,-96.091,0.0787,-0.5227,0.4586,-69.191,15.277,1.979
18.900378,87.873,53.651,-95.623,-0.2791,-0.1255,0.2951,-70.031,16.630,0.762
18.917045,87.131,53.577,-95.148,-0.3178,0.0418,0.0293,-67.400,16.715,5.172
18.933712,86.673,53.447,-94.720,-0.1752,0.1512,-0.1201,-48.115,14.845,8.547
18.950379,86.419,53.292,-94.384,-0.2141,0.1242,-0.0423,-31.397,11.465,10.021
18.967046,86.052,53.115,-94.085,-0.3478,-0.2013,0.3418,-36.318,10.023,11.223
18.983713,85.508,52.944,-93.642,0.0068,-0.5740,0.3299,-53.882,15.233,11.397
19.000380,84.652,52.803,-93.005,-0.0014,-0.8703,0.4065,-81.715,22.248,10.372
19.017047,83.331,52.727,-92.232,-0.0718,-1.1267,0.3717,-116.157,27.434,7.483
19.033714,81.696,52.686,-91.308,0.1547,-0.7475,0.0464,-142.096,32.987,6.733
19.050381,80.149,52.675,-90.371,0.3190,0.3398,-0.5497,-137.455,33.555,6.032
19.067048,78.951,52.646,-89.505,0.4946,1.1244,-0.9117,-113.137,30.664,7.366
19.083715,78.121,52.591,-88.650,0.8200,0.9744,-0.6946,-90.447,29.863,9.428
19.100382,77.562,52.499,-87.757,1.0520,0.2486,-0.0101,-76.096,30.706,12.261
19.117049,77.198,52.428,-86.916,0.5199,0.2634,0.1514,-61.740,29.030,10.892
19.133716,76.858,52.404,-86.278,-0.5805,0.8052,-0.1104,-50.686,22.387,6.672
19.150383,76.491,52.399,-85.768,-0.6956,0.5252,-0.0642,-46.214,18.067,4.598
19.167050,76.062,52.411,-85.340,-0.5688,0.5543,-0.1008,-46.124,15.408,3.052
19.183717,75.665,52.387,-84.940,-0.1433,0.3670,-0.1168,-42.752,13.807,5.080
19.200384,75.384,52.352,-84.559,0.1048,0.3120,-0.1340,-35.013,13.031,5.540
19.217051,75.099,52.332,-84.120,0.3056,-0.1193,0.1424,-37.878,15.241,5.340
19.233718,74.777,52.376,-83.658,-0.1198,-0.1571,0.2115,-41.265,16.991,1.957
19.250385,74.388,52.474,-83.219,-0.4631,-0.1067,0.0898,-44.155,17.050,-1.366
19.267052,73.968,52.593,-82.841,-0.5594,0.0694,-0.0520,-43.212,15.229,-2.993
19.283719,73.570,52.692,-82.482,-0.2665,0.1505,-0.1935,-40.970,14.188,-1.983
19.300386,73.333,52.749,-82.140,-0.2161,0.3928,-0.2283,-30.577,12.912,0.328
19.317053,73.278,52.757,-81.890,-0.3682,0.2740,0.0117,-15.156,8.825,2.227
19.333720,73.310,52.746,-81.715,-0.5303,-0.0873,0.2614,-6.462,5.899,2.572
19.350387,73.271,52.737,-81.491,-0.1956,-0.3027,0.3320,-13.008,7.671,2.938
19.367054,73.172,52.722,-81.169,0.1222,-0.1311,0.1253,-21.282,10.932,4.349
19.383721,73.090,52.715,-80.774,0.1800,0.1520,0.0194,-23.736,13.605,4.690
19.400388,73.024,52.698,-80.286,0.4562,-0.0353,0.2560,-27.315,16.694,6.244
19.417055,73.079,52.684,-79.769,0.0513,0.3627,0.2613,-21.305,17.727,6.337
19.433722,73.221,52.659,-79.274,-0.0752,0.4079,0.2679,-15.090,16.797,6.770
19.450389,73.463,52.611,-78.767,0.0588,0.3245,0.2220,-9.654,16.857,8.156
19.467056,73.771,52.528,-78.314,0.0307,0.5192,-0.0428,-3.096,14.431,9.559
19.483723,74.179,52.401,-77.938,-0.0404,0.6631,-0.2653,6.573,11.120,11.228
19.500390,74.631,52.230,-77.615,0.1124,0.6945,-0.1186,11.775,8.628,13.205
19.517057,75.120,52.028,-77.361,0.1442,0.9182,-0.0951,17.300,5.869,14.246
19.533724,75.621,51.813,-77.131,0.2178,1.0656,-0.1895,19.098,4.995,14.777
19.550391,76.132,51.603,-76.900,0.1097,0.9306,-0.0436,19.777,5.230,14.476
19.567058,76.639,51.445,-76.669,-0.0974,0.7713,0.1521,19.479,6.155,11.435
19.583725,77.098,51.368,-76.402,-0.2130,0.6823,0.3782,14.883,8.709,6.921
19.600392,77.552,51.373,-76.077,-0.0386,0.6206,0.5540,11.978,11.905,2.591
19.617059,78.138,51.444,-75.769,-0.2176,0.8220,0.4343,20.620,12.203,-1.560
19.633726,78.859,51.568,-75.505,-0.6477,0.6631,0.3473,30.726,11.167,-5.102
19.650393,79.610,51.719,-75.189,-0.2907,0.2554,0.6268,30.036,13.281,-6.490
19.667060,80.346,51.871,-74.844,-0.1003,0.3057,0.4640,27.786,14.209,-6.537
19.683727,81.092,52.007,-74.502,0.0789,0.2377,0.3071,28.462,13.846,-5.837
19.700394,81.899,52.122,-74.197,0.0810,0.1218,0.2907,33.912,12.165,-4.962
19.717061,82.726,52.223,-74.005,-0.2902,0.0576,0.1418,40.340,7.851,-4.818
19.733728,83.494,52.320,-73.829,-0.1371,-0.2591,0.3109,37.608,7.143,-4.773
19.750395,84.213,52.402,-73.709,-0.0685,-0.2019,0.2532,37.291,4.964,-4.249
19.767062,84.941,52.436,-73.646,0.1802,-0.2351,0.0482,40.567,2.512,-1.636
19.783729,85.746,52.402,-73.590,0.1353,-0.3011,0.1299,45.491,1.902,2.426
19.800396,86.542,52.301,-73.568,-0.2953,-0.0821,-0.0085,46.624,0.433,6.250
19.817063,87.195,52.176,-73.546,-0.5870,-0.1056,-0.1279,37.942,0.451,7.723
19.833730,87.651,52.065,-73.517,-0.7371,-0.1866,-0.0879,25.882,0.800,6.904
19.850397,87.990,52.017,-73.487,-0.5506,-0.2070,-0.2104,18.899,1.016,3.086
19.867064,88.390,52.068,-73.438,-0.4194,-0.1632,-0.3229,21.515,1.972,-2.830
19.883731,88.874,52.226,-73.356,-0.4981,-0.2974,-0.1686,25.116,3.281,-9.222
19.900398,89.485,52.472,-73.227,-0.4596,-0.3424,0.1370,30.375,5.009,-14.537
19.917065,90.246,52.793,-73.073,-0.4639,-0.1720,0.2655,38.260,5.686,-19.065
19.933732,91.178,53.127,-72.892,-0.0375,-0.3790,0.4319,47.211,6.364,-19.984
19.950399,92.305,53.408,-72.675,0.1286,-0.4059,0.4238,57.108,7.313,-16.920
19.967066,93.570,53.580,-72.451,-0.1663,-0.5174,0.2396,65.000,7.522,-10.598
19.983733,94.719,53.613,-72.221,-0.4020,-0.9253,0.0509,57.794,8.066,-2.439
20.000400,95.569,53.499,-72.026,-0.6918,-0.8776,-0.2495,41.544,7.563,6.302
20.017067,96.021,53.243,-71.877,-0.7710,-0.4619,-0.3600,19.958,6.893,14.825
20.033734,96.164,52.865,-71.760,-0.5913,0.0583,-0.1505,2.998,6.630,22.197
20.050401,96.245,52.436,-71.684,-0.4965,0.5929,0.0041,1.202,5.588,25.431
20.067068,96.421,52.005,-71.664,-0.4848,0.6380,-0.0042,9.594,3.658,25.714
20.083735,96.690,51.567,-71.672,-0.5034,0.3115,-0.1408,16.519,2.755,26.286
20.100402,97.010,51.117,-71.686,-0.7513,0.2764,-0.2194,19.808,2.785,26.943
20.117069,97.285,50.666,-71.702,-1.2248,0.5585,-0.3786,17.200,2.848,27.092
20.133736,97.391,50.232,-71.671,-1.4631,0.5161,-0.1945,5.002,4.554,25.760
20.150403,97.328,49.856,-71.628,-1.4512,0.5108,0.0198,-5.863,4.681,22.312
20.167070,97.213,49.577,-71.607,-1.3786,0.5873,-0.2052,-7.813,3.027,16.678
20.183737,97.159,49.401,-71.629,-1.2527,0.4952,-0.4762,-2.313,0.639,10.749
20.200404,97.204,49.317,-71.724,-1.2128,0.4706,-0.5301,7.068,-2.904,5.571
20.217071,97.355,49.297,-71.897,-1.3040,0.4350,-0.6751,16.873,-6.369,2.226
20.233738,97.539,49.343,-72.121,-1.6661,0.2598,-0.5810,21.222,-8.881,-1.402
20.250405,97.569,49.452,-72.414,-1.6797,-0.1681,0.0080,15.126,-11.976,-4.809
20.267072,97.499,49.613,-72.737,-1.5294,-0.2576,0.4992,10.585,-13.524,-7.729
20.283739,97.464,49.799,-73.089,-1.2138,0.2989,0.6881,13.967,-14.758,-9.117
20.300406,97.562,49.931,-73.497,-0.9578,0.4427,0.8865,24.631,-16.445,-5.611
20.317073,97.824,49.992,-74.012,-0.8350,0.4961,0.7715,39.381,-19.909,-0.786
20.333740,98.160,49.951,-74.665,-0.8087,0.5270,0.3695,50.172,-24.369,6.109
20.350407,98.494,49.793,-75.399,-0.5444,0.4439,0.2763,53.677,-26.406,13.669
20.367074,98.851,49.528,-76.198,-0.3306,0.5758,0.3604,57.976,-28.018,20.568
20.383741,99.267,49.185,-76.992,-0.1157,0.8221,0.4126,61.107,-27.096,25.388
20.400408,99.754,48.772,-77.716,0.0557,0.8731,0.6893,62.016,-23.741,29.337
20.417075,100.287,48.324,-78.321,0.1854,0.8047,0.7750,59.127,-18.657,30.829
20.433742,100.802,47.881,-78.742,0.1538,0.7085,0.7088,49.682,-11.416,29.351
20.450409,101.153,47.492,-78.957,-0.0924,0.6438,0.5815,30.524,-3.775,24.730
20.467076,101.284,47.173,-79.013,0.0237,0.6398,0.3579,10.357,1.777,19.404
20.483743,101.273,46.914,-78.979,0.5189,0.7826,-0.1843,-2.202,4.743,15.187
20.500410,101.250,46.693,-78.937,0.9688,0.9094,-0.5720,-3.329,4.629,12.853
20.517077,101.351,46.481,-78.915,1.2155,1.0279,-0.8225,4.993,3.688,12.472
20.533744,101.701,46.285,-78.907,1.2724,1.1422,-0.7400,20.581,2.993,11.686
20.550411,102.216,46.156,-78.857,1.1246,0.9898,-0.2555,28.620,3.914,7.300
20.567078,102.733,46.152,-78.711,0.8520,0.7676,0.5708,24.556,6.322,-0.823
20.583745,103.176,46.297,-78.473,0.7314,0.5194,1.0705,16.085,7.983,-10.512
20.600412,103.603,46.594,-78.182,0.9210,0.3117,1.0108,12.799,7.861,-19.894
20.617079,104.055,46.996,-77.838,1.3050,0.0820,0.6482,11.872,8.264,-26.591
20.633746,104.516,47.406,-77.475,1.4846,-0.0759,0.1798,11.473,8.551,-27.234
20.650413,104.993,47.763,-77.127,1.5157,-0.3369,-0.1233,12.985,8.429,-24.118
20.667080,105.473,48.071,-76.813,1.3610,-0.6096,-0.2985,14.528,7.595,-20.954
20.683747,105.882,48.333,-76.553,1.1900,-0.8994,-0.4778,12.717,5.958,-17.752
20.700414,106.238,48.547,-76.329,1.2214,-1.0283,-0.6201,11.130,5.219,-14.575
20.717081,106.581,48.708,-76.131,1.1887,-1.0474,-0.6014,11.438,4.957,-11.360
20.733748,106.898,48.832,-75.939,0.9474,-1.0692,-0.5061,10.104,5.282,-9.110
20.750415,107.150,48.931,-75.753,0.8398,-1.1075,-0.3550,6.569,5.373,-7.700
20.767082,107.316,49.011,-75.571,0.8014,-1.0615,-0.2804,1.585,5.499,-6.537
20.783749,107.414,49.074,-75.410,0.8187,-1.0252,-0.3150,-1.594,4.987,-5.386
20.800416,107.454,49.114,-75.285,0.7908,-1.0093,-0.3841,-3.420,3.998,-3.623
20.817083,107.440,49.133,-75.232,0.6468,-1.0202,-0.4907,-3.385,1.649,-1.595
20.833750,107.382,49.138,-75.275,0.5595,-1.0636,-0.6497,-1.659,-1.689,0.309
20.850417,107.267,49.121,-75.421,0.6257,-1.0948,-0.8494,-0.355,-5.200,2.772
20.867084,107.098,49.072,-75.645,0.6089,-1.1719,-0.9821,-0.086,-7.581,5.506
20.883751,106.799,49.013,-75.956,0.2358,-1.2842,-0.8749,-3.904,-10.741,7.025
20.900418,106.321,48.971,-76.319,-0.0070,-1.3261,-0.7540,-12.266,-13.101,6.551
20.917085,105.678,48.961,-76.746,-0.0126,-1.1439,-0.7119,-19.291,-16.080,5.267
20.933752,104.934,48.990,-77.272,0.0120,-1.0076,-0.6534,-20.807,-20.599,3.840
20.950419,104.135,49.058,-77.922,0.0132,-0.8790,-0.6334,-18.517,-25.903,2.549
20.967086,103.292,49.144,-78.705,-0.1474,-0.9061,-0.5369,-15.055,-31.239,2.274
20.983753,102.354,49.245,-79.640,-0.3403,-0.9316,-0.2805,-13.722,-37.267,2.266
21.000420,101.277,49.360,-80.751,-0.4394,-0.8002,-0.2011,-14.027,-44.117,2.177
21.017087,100.103,49.473,-82.043,-0.2679,-0.5955,-0.2143,-11.508,-50.988,2.710
21.033754,98.901,49.548,-83.540,0.0642,-0.3427,-0.3711,-3.703,-58.450,5.131
21.050421,97.742,49.562,-85.220,0.2917,-0.1964,-0.6428,7.270,-65.018,8.628
21.067088,96.673,49.489,-87.029,0.3304,-0.2294,-0.6966,18.536,-69.536,13.178
21.083755,95.688,49.329,-88.896,0.1560,-0.3570,-0.4725,26.057,-71.638,17.416
21.100422,94.759,49.112,-90.763,-0.0851,-0.4433,-0.1402,29.185,-71.888,19.569
21.117089,93.883,48.865,-92.582,-0.2712,-0.3549,0.0390,29.862,-70.521,20.163
21.133756,93.055,48.598,-94.308,-0.2571,-0.1618,0.0043,28.278,-67.441,20.101
21.150423,92.281,48.312,-95.900,-0.1668,-0.0780,0.0142,25.143,-62.683,20.054
21.167090,91.513,48.008,-97.333,-0.1172,-0.1097,0.1550,18.131,-56.966,20.081
21.183757,90.693,47.700,-98.593,-0.1123,-0.1564,0.3389,6.959,-50.580,19.384
21.200424,89.815,47.396,-99.696,-0.1368,-0.1335,0.3555,-3.734,-44.833,18.419
21.217091,88.870,47.093,-100.678,-0.1566,-0.1237,0.2686,-13.367,-40.423,17.620
21.233758,87.834,46.790,-101.548,-0.1385,-0.1331,0.2667,-23.895,-36.398,17.122
21.250425,86.714,46.502,-102.340,0.0084,-0.0552,0.2718,-32.522,-33.636,15.624
21.267092,85.521,46.251,-103.065,0.1298,-0.0873,0.3744,-39.964,-31.224,12.963
21.283759,84.276,46.058,-103.718,0.1966,-0.1343,0.5638,-46.338,-28.294,9.033
21.300426,83.002,45.952,-104.299,0.1238,-0.1756,0.6577,-51.263,-24.996,3.597
21.317093,81.690,45.940,-104.809,-0.0098,-0.3423,0.7057,-56.633,-21.410,-2.190
21.333760,80.362,46.013,-105.246,-0.0954,-0.4673,0.7799,-60.726,-17.587,-7.226
21.350427,79.047,46.166,-105.617,-0.1953,-0.5614,0.7515,-62.745,-13.763,-11.899
21.367094,77.781,46.370,-105.937,-0.1610,-0.6787,0.7512,-61.961,-10.812,-14.738
21.383761,76.693,46.598,-106.224,0.0473,-0.6871,0.5589,-52.631,-8.796,-16.098
21.400428,75.873,46.816,-106.483,0.1032,-0.7039,0.3620,-37.726,-7.528,-15.303
21.417095,75.350,46.981,-106.701,0.0668,-0.8336,0.4224,-21.688,-6.454,-11.951
21.433762,75.116,47.079,-106.886,-0.0648,-0.7304,0.5201,-5.757,-6.094,-7.745
21.450429,75.130,47.106,-107.034,-0.1443,-0.5942,0.6951,7.493,-5.722,-3.251
21.467096,75.282,47.084,-107.130,-0.2687,-0.5332,0.8145,13.510,-4.425,0.104
21.483763,75.421,47.039,-107.157,-0.4369,-0.6483,0.8717,9.731,-2.051,2.191
21.500430,75.483,46.990,-107.122,-0.4469,-0.6381,0.7233,2.413,0.358,3.017
21.517097,75.510,46.933,-107.041,-0.3364,-0.4009,0.4290,-1.732,2.015,3.965
21.533764,75.535,46.854,-106.941,-0.3157,-0.1351,0.2145,-2.642,2.488,5.452
21.550431,75.591,46.737,-106.857,-0.4700,0.0855,0.1420,-0.096,1.273,7.455
21.567098,75.748,46.583,-106.835,-0.5728,0.3227,0.0004,8.667,-1.695,8.969
21.583765,75.978,46.422,-106.897,-0.7123,0.4859,-0.2534,16.695,-5.156,8.610
21.600432,76.217,46.284,-107.041,-0.7152,0.3896,-0.5407,20.834,-8.089,6.447
21.617099,76.488,46.180,-107.221,-0.6028,0.2663,-0.7973,24.318,-9.022,4.107
21.633766,76.816,46.096,-107.443,-0.5388,0.1420,-0.9488,29.450,-10.406,2.632
21.650433,77.230,46.072,-107.691,-0.6460,0.3018,-1.1376,35.798,-10.679,-1.036
21.667100,77.610,46.067,-107.967,-0.9724,0.6336,-1.3415,34.946,-11.529,-2.405
21.683767,77.959,46.092,-108.276,-0.9663,0.6059,-1.1378,34.528,-12.537,-4.328
21.700434,78.393,46.138,-108.637,-0.4970,0.3918,-1.0410,41.893,-14.398,-5.868
21.717101,78.799,46.283,-109.059,-1.0374,0.2671,-0.3549,42.844,-15.673,-12.127
21.733768,78.682,46.580,-109.508,-1.5938,0.1776,0.5519,12.750,-14.965,-21.193
21.750435,78.074,47.008,-110.011,-1.1116,0.2113,0.8335,-14.247,-15.295,-29.487
21.767102,77.315,47.588,-110.654,-0.6401,0.2420,0.8345,-16.989,-18.351,-39.651
21.783769,76.527,48.242,-111.410,-0.4831,0.0471,0.3683,-13.376,-20.922,-45.252
21.800436,75.838,48.920,-112.182,-0.6128,0.3957,-0.0318,-6.296,-20.257,-46.959
21.817103,75.126,49.576,-112.760,-0.7848,-0.1855,0.1677,-16.233,-12.231,-43.864
21.833770,74.238,50.197,-112.951,-0.6961,-1.1318,0.2910,-44.256,2.529,-37.997
21.850437,73.164,50.774,-112.803,-0.5166,-1.2794,-0.0983,-71.004,14.986,-31.809
21.867104,71.790,51.342,-112.300,-0.4447,-1.6285,-0.1068,-105.565,28.128,-26.929
21.883771,70.277,51.917,-111.522,-0.4765,-1.5764,-0.0123,-127.036,38.422,-23.384
21.900438,68.838,52.487,-110.604,-0.5106,-0.6850,-0.2882,-129.474,43.364,-20.460
21.917105,67.617,53.029,-109.578,-0.3696,0.0892,-0.5702,-121.922,46.481,-16.597
21.933772,66.732,53.544,-108.474,0.2202,0.2634,-0.5386,-105.790,48.271,-13.289
21.950439,66.168,54.059,-107.681,0.7245,0.4194,-0.3737,-71.870,37.941,-17.306
21.967106,65.445,54.576,-107.155,0.6231,-0.1613,-0.0287,-68.618,29.326,-20.933
21.983773,64.304,55.123,-106.577,0.2994,-1.1359,0.0855,-96.413,31.832,-21.388
22.000440,62.986,55.661,-106.105,0.0321,-0.8783,0.2353,-102.047,28.594,-22.009
22.017107,61.607,56.153,-105.722,-0.2081,-0.1827,-0.1583,-101.384,24.952,-20.290
22.033774,60.658,56.651,-105.610,0.6013,2.7574,-1.5889,-62.137,17.519,-24.571
22.050441,59.573,57.125,-105.810,-0.4479,1.7470,-0.7440,-54.629,8.337,-28.096
22.067108,57.850,57.609,-105.960,-0.2686,-3.0127,1.6680,-95.475,10.814,-27.446
22.083775,55.368,58.178,-106.114,0.9176,-3.4236,1.7960,-140.714,14.567,-31.395
22.100442,53.146,58.784,-106.324,1.5886,-0.2990,0.4401,-122.179,15.765,-33.565
22.117109,51.442,59.294,-106.508,1.5377,-0.5460,0.0692,-92.387,14.093,-27.892
22.133776,50.005,59.576,-106.748,0.7929,-0.7665,0.6419,-73.388,4.882,-17.944
22.150443,48.551,59.679,-107.264,1.2286,-0.7113,0.1357,-60.062,-8.002,-15.117
22.167110,47.011,59.761,-107.901,1.2066,-0.3831,-0.0519,-58.977,-11.092,-16.858
22.183777,45.570,59.731,-108.815,0.8767,-2.0762,0.9704,-38.732,-21.377,-18.026
22.200444,44.544,59.473,-109.927,0.5584,0.1994,0.5093,-3.574,-34.992,-13.171
22.217111,45.038,58.930,-111.317,1.6546,2.8002,-1.5215,101.675,-53.326,-7.666
22.233778,46.411,58.335,-112.954,2.7836,0.4417,-0.5063,166.584,-61.710,-10.381
22.250445,47.763,57.932,-114.487,3.7558,0.1407,-0.4145,159.509,-52.234,-15.574
22.267112,48.903,57.924,-115.504,6.1766,0.6862,-1.3209,120.356,-24.769,-21.407
22.283779,49.504,58.228,-115.814,4.4874,1.3586,-0.4567,51.966,4.207,-20.448
22.300446,50.279,58.597,-115.834,3.5353,3.1623,-0.2769,47.587,13.504,-17.503
22.317113,51.093,58.829,-115.542,3.5073,-0.2706,1.2689,33.853,15.571,-5.118
22.333780,51.709,58.937,-115.074,2.0657,-1.8188,2.2433,12.904,15.072,3.872
22.350447,52.492,58.939,-114.545,0.9951,-0.7063,1.4870,19.783,12.655,9.824
22.367114,53.387,58.918,-113.961,1.2335,0.0411,0.4467,23.624,13.332,11.773
22.383781,53.961,59.007,-113.258,1.2168,-0.0078,-0.1432,-1.723,20.336,8.431
22.400448,54.432,59.117,-112.642,-0.1673,1.8643,-0.5926,-3.479,18.922,5.632
22.417115,54.774,59.108,-112.323,-1.4368,1.0905,-0.1170,3.999,7.363,6.036
22.433782,54.948,58.902,-112.513,-0.6543,1.4204,-0.7650,20.115,-12.242,6.659
22.450449,55.079,58.668,-112.981,-0.0729,0.2927,-1.4603,31.727,-20.232,3.062
22.467116,55.130,58.494,-113.554,0.9226,-0.3361,-1.8655,32.228,-20.980,-1.717
22.483783,55.040,58.385,-114.161,0.1741,-0.1873,-1.4096,25.504,-19.690,-5.616
22.500450,54.872,58.286,-114.804,-0.1522,0.1523,-0.8008,22.624,-20.298,-6.786
22.517117,54.742,58.146,-115.527,-0.6323,1.2386,-0.2317,28.986,-23.835,-6.364
22.533784,54.937,57.827,-116.519,-1.0422,1.1906,0.4165,62.025,-37.101,-2.570
22.550451,55.927,57.427,-117.621,-0.1737,-1.1127,0.8400,115.043,-43.059,-0.284
22.567118,57.588,57.061,-118.631,-0.6318,-3.0853,1.8829,150.463,-39.706,0.347
22.583785,59.379,56.792,-119.166,-1.0321,-3.4427,1.3542,134.297,-23.701,4.568
22.600452,60.820,56.637,-119.408,-0.9178,-2.2271,0.7664,98.563,-11.880,4.003
22.617119,62.004,56.594,-119.439,-1.0127,-0.5391,0.2523,72.648,-2.486,1.622
22.633786,63.155,56.599,-119.488,-1.9368,0.3982,0.4697,71.562,-1.662,-1.171
22.650453,64.470,56.602,-119.554,-1.7469,-0.2017,0.7731,82.285,-2.230,-1.255
22.667120,65.691,56.614,-119.553,-0.7939,-1.0644,0.5876,73.283,-0.011,-0.770
22.683787,66.879,56.622,-119.431,-0.5502,-1.6341,0.3948,65.269,3.533,1.033
22.700454,68.067,56.621,-119.108,-0.5565,-1.8349,0.3600,55.257,9.442,3.972
22.717121,69.301,56.587,-118.679,-1.1821,-2.1340,0.4200,52.712,12.064,6.861
22.733788,70.427,56.495,-118.166,-1.4110,-1.9329,0.2425,42.106,13.594,10.844
22.750455,71.499,56.363,-117.564,-1.7212,-2.1625,0.0415,34.445,15.895,13.728
22.767122,71.973,56.280,-116.681,-1.1901,-3.1433,0.2392,-15.271,25.857,13.689
22.783789,71.569,56.218,-115.572,0.1358,-2.9378,0.4293,-79.203,33.480,14.787
22.800456,71.118,56.233,-114.257,0.5502,-1.4266,0.0325,-92.229,41.362,12.819
22.817123,71.288,56.325,-112.774,-0.1577,-1.3485,0.1298,-63.342,48.027,10.328
22.833790,71.976,56.466,-111.371,0.1767,-1.7354,-0.2065,-28.367,46.345,6.285
22.850457,72.554,56.740,-109.946,-1.5372,-2.2916,0.1860,-36.150,49.296,-1.705
22.867124,72.484,57.118,-108.478,-0.4759,-0.4726,-0.8935,-77.456,52.115,-7.626
22.883791,72.428,57.271,-107.069,-0.6045,-1.6254,0.1949,-73.876,45.936,4.622
22.900458,72.403,57.404,-105.958,-1.0548,-1.2685,0.2256,-57.018,36.183,2.828
22.917125,72.173,57.412,-105.041,-0.6651,-0.5599,-0.7572,-59.433,27.821,8.115
22.933792,72.360,57.258,-104.109,-0.6933,-0.8174,-0.5265,-35.222,25.414,17.536
22.950459,73.202,57.047,-103.182,-0.1155,1.6983,-1.0790,4.432,24.567,20.559
22.967126,74.338,56.905,-102.468,-0.2667,1.3080,-0.2370,32.950,19.497,14.304
22.983793,75.089,56.879,-101.761,-0.4584,2.4008,-0.0591,10.132,21.445,7.193
23.000460,75.741,56.853,-101.226,-0.7289,3.3694,-0.1344,12.775,16.118,5.570
23.017127,76.557,56.893,-100.785,0.0032,2.6548,-0.0848,27.381,14.147,0.816
23.033794,77.775,57.001,-100.458,1.1936,3.4147,-0.8088,57.112,11.462,-4.190
23.050461,79.096,57.226,-100.184,0.8793,2.1240,0.2195,65.890,11.030,-11.644
23.067128,80.146,57.391,-99.782,1.6656,-0.0183,1.1252,43.075,14.220,-7.625
23.083795,80.647,57.579,-99.383,1.1192,0.9384,0.0422,10.192,14.194,-9.126
23.100462,81.173,57.799,-98.882,1.5902,1.3511,0.2346,6.447,17.589,-10.680
23.117129,81.242,57.939,-98.447,0.6061,0.1353,0.5963,-17.745,14.664,-6.299
23.133796,81.108,58.027,-98.119,0.8638,0.2222,0.5214,-24.460,10.776,-3.806
23.150463,80.925,58.012,-97.853,1.6139,0.1412,0.0922,-24.299,7.852,2.093
23.167130,80.663,57.926,-97.657,1.9373,-0.0051,0.1541,-25.485,5.007,5.972
23.183797,80.224,57.753,-97.453,1.6420,0.0229,0.3703,-36.569,4.375,11.184
23.200464,79.689,57.504,-97.293,1.2010,0.2552,0.2135,-40.050,2.081,15.453
23.217131,79.145,57.217,-97.231,1.0989,0.4117,0.1120,-35.615,-1.534,17.185
23.233798,78.334,56.852,-97.326,1.1784,-0.2156,0.0824,-43.755,-7.668,20.699
23.250465,77.349,56.468,-97.486,1.4121,0.0278,0.5272,-48.716,-11.744,20.927
23.267132,76.328,56.071,-97.804,2.0364,0.9384,0.2006,-45.682,-15.871,20.734
23.283799,75.412,55.637,-98.085,1.8699,0.8254,0.1385,-41.096,-15.791,22.861
23.300466,74.380,55.184,-98.106,2.0028,0.4504,0.8416,-61.321,-7.861,26.029
23.317133,73.161,54.781,-98.066,1.5201,0.7213,1.0078,-75.199,-5.699,23.476
23.333800,72.208,54.429,-97.972,1.1064,2.0779,0.0794,-61.884,-3.476,21.089
23.350467,71.626,54.150,-97.844,1.7380,0.9957,-0.0337,-41.316,-1.198,17.240
23.367134,71.398,54.033,-97.772,1.3143,2.1675,-1.5053,-17.424,-0.073,7.403
23.383801,71.054,54.109,-97.688,0.8610,1.8562,-1.6283,-24.975,4.006,-3.385
23.400468,70.321,54.239,-97.672,-0.7308,0.4804,-1.0733,-45.036,2.898,-7.182
23.417135,69.988,54.367,-97.736,-0.5634,0.5507,-1.5347,-17.166,0.264,-7.953
23.433802,70.028,54.303,-97.990,-0.8376,-0.7999,-1.6822,14.513,-9.858,0.545
23.450469,70.987,54.106,-98.254,-0.7030,-0.6164,-1.2074,70.091,-12.919,8.090
23.467136,72.239,53.871,-98.921,-0.3866,-0.9418,-0.4902,107.234,-26.992,5.961
23.483803,73.808,53.711,-99.800,-0.3639,0.4623,-0.4495,136.508,-32.834,0.071
23.500470,75.608,53.674,-100.916,-0.5053,-0.3068,0.3253,161.725,-39.083,-8.345
23.517137,77.292,53.678,-102.019,-0.5913,0.2998,0.2264,154.123,-38.264,-9.419
23.533804,79.310,53.747,-103.055,0.2205,1.1785,-0.6715,170.985,-35.439,-11.482
23.550471,81.294,53.918,-103.947,0.2378,0.9437,-0.3652,162.006,-29.625,-15.370
23.567138,83.577,54.155,-104.880,0.8630,1.8274,-0.7903,182.046,-30.904,-18.426
23.583805,86.276,54.424,-105.807,1.4072,0.4792,-0.4325,206.823,-31.110,-18.848
23.600472,89.094,54.755,-106.489,0.9271,-0.7577,0.0386,202.074,-23.062,-20.706
23.617139,92.124,55.167,-106.813,0.5966,0.0266,-0.7159,197.389,-11.607,-24.566
23.633806,94.953,55.629,-106.873,0.4719,-0.7695,-0.5170,172.418,-3.946,-27.441
23.650473,97.490,56.136,-106.698,1.1558,-1.1989,-0.7348,143.223,2.370,-30.780
23.667140,99.515,56.653,-106.274,0.4019,-2.6899,0.0711,99.963,9.132,-32.681
23.683807,101.303,57.216,-105.640,-0.6946,-2.4919,0.8237,75.153,14.057,-36.915
23.700474,102.909,57.819,-104.743,-1.6538,-3.8473,1.4737,50.769,20.373,-41.405
23.717141,104.327,58.492,-103.289,-1.0647,-4.4430,0.4308,10.766,34.914,-50.084
23.733808,105.032,59.207,-100.877,-0.0993,-4.8972,-0.8941,-81.563,61.172,-60.448
23.750475,104.397,59.795,-97.958,-3.7690,-8.2078,1.3926,-188.964,76.570,-56.754
23.767142,103.780,60.236,-95.457,-3.4230,-3.6868,0.4281,-166.762,65.784,-44.020
23.783809,103.975,60.399,-93.493,-4.5887,-4.9900,1.8101,-90.372,53.774,-23.636
23.800476,104.102,60.537,-91.316,-4.7793,-5.3937,2.0760,-105.574,59.864,-23.857
23.817143,102.902,60.827,-89.084,-4.6853,-3.5697,1.2850,-188.175,59.123,-32.472
23.833810,101.233,61.205,-87.361,-4.8750,1.4805,-0.4126,-189.772,43.657,-32.865
23.850477,99.553,61.319,-86.786,-5.3686,2.6705,-0.2313,-130.313,14.531,-10.000
23.867144,97.898,61.179,-87.000,-5.4305,1.9593,-0.2442,-87.186,-5.362,8.953
23.883811,96.011,60.878,-87.635,-2.9617,2.4750,-0.1778,-78.976,-16.610,19.968
23.900478,94.692,60.711,-88.184,-0.5176,1.6636,-0.9084,-49.576,-15.514,11.239
23.917145,93.621,60.749,-88.657,2.1701,-0.2993,-1.2981,-38.669,-14.435,-1.493
23.933812,93.306,60.992,-89.432,2.4498,2.6089,-2.5280,22.568,-23.941,-13.448
23.950479,93.409,61.299,-90.257,2.0336,2.6981,-1.2738,50.205,-25.312,-17.163
23.967146,93.760,61.671,-90.662,2.2268,3.5367,-0.6055,43.058,-13.362,-21.729
23.983813,93.615,62.153,-90.480,2.3447,2.8827,-0.2598,-17.770,2.908,-29.368
24.000480,93.083,62.742,-89.871,2.5569,3.1105,-0.1261,-63.855,14.465,-36.436
24.017147,92.789,63.347,-89.072,2.6099,2.6737,0.4848,-60.020,19.536,-37.435
24.033814,92.514,63.849,-88.206,2.4435,0.6944,1.3221,-62.726,21.421,-31.267
24.050481,92.181,64.277,-87.393,2.9108,0.7742,1.0450,-63.615,19.993,-26.615
24.067148,91.994,64.642,-86.609,3.2159,1.4234,0.6232,-53.519,19.204,-22.701
24.083815,91.606,64.966,-85.908,2.2507,1.5832,0.6341,-61.187,17.010,-20.044
24.100482,91.307,65.254,-85.432,2.0235,1.7411,0.5502,-43.802,11.331,-17.645
24.117149,91.095,65.528,-85.081,2.2856,1.3592,0.0062,-31.859,8.183,-16.647
24.133816,90.966,65.786,-84.855,1.9658,0.6365,-0.0468,-20.180,5.074,-15.591
24.150483,90.953,65.978,-84.744,1.5386,0.5184,0.1315,-6.971,2.284,-11.587
24.167150,91.013,66.080,-84.741,1.4793,-0.4986,0.3892,3.255,-0.230,-6.143
24.183817,90.919,66.145,-84.805,1.5280,-0.2597,0.2165,-2.500,-1.785,-3.931
24.200484,90.899,66.162,-84.911,1.3243,1.3508,-0.1378,4.473,-2.838,-1.029
24.217151,90.889,66.183,-85.006,0.9273,1.2121,0.3589,4.463,-2.589,-1.206
24.233818,90.752,66.195,-85.140,0.4223,1.6105,0.6371,-0.285,-3.842,-0.695
24.250485,90.564,66.203,-85.301,0.3749,1.3859,0.3928,-2.917,-4.025,-0.466
24.267152,90.282,66.188,-85.595,0.0788,1.5912,0.2039,-3.977,-6.114,1.037
24.283819,90.060,66.165,-85.916,-0.1297,0.9071,0.2139,6.674,-9.118,1.397
24.300486,89.852,66.122,-86.465,-0.6727,0.1893,0.4163,17.663,-13.679,2.584
24.317153,89.690,66.082,-87.099,-0.4716,0.4642,0.1220,21.992,-14.449,2.435
24.333820,89.546,66.049,-87.754,-0.7725,0.4189,0.3076,24.203,-14.985,1.944
24.350487,89.291,66.038,-88.347,-0.6111,0.3286,0.4823,14.643,-13.688,0.583
24.367154,88.802,66.037,-89.032,-0.6660,0.5828,-0.0030,7.293,-16.600,-0.115
24.383821,88.372,66.031,-89.647,-0.3057,0.1641,-0.4439,7.720,-15.221,0.056
24.400488,87.919,66.027,-90.276,-0.5046,-0.9042,-0.4284,7.906,-15.897,-0.258
24.417155,87.454,66.033,-90.993,-1.0593,-1.2765,-0.4418,11.249,-17.662,-1.007
24.433822,87.107,66.043,-91.717,-0.9106,-1.1166,-0.3592,18.686,-17.807,-1.379
24.450489,86.944,66.079,-92.353,-0.7200,-1.0510,-0.4781,24.971,-15.586,-2.962
24.467156,86.844,66.139,-92.879,-0.8108,-1.1635,-0.4217,22.989,-12.902,-4.252
24.483823,86.814,66.214,-93.182,-0.8500,-1.2761,-0.4291,14.711,-7.289,-4.893
24.500490,86.771,66.312,-93.286,-0.6558,-1.4374,-0.3752,3.026,-2.383,-5.981
24.517157,86.773,66.402,-93.282,-0.8146,-1.0034,-0.5703,-0.159,0.171,-5.378
24.533824,86.911,66.479,-93.212,-0.9234,-0.8482,-0.6532,4.464,1.666,-4.577
24.550491,87.040,66.563,-93.028,-1.3419,-1.6124,-0.4831,-2.351,4.409,-4.794
24.567158,87.205,66.672,-92.733,-1.6920,-0.9835,-0.4595,-6.314,7.122,-6.189
24.583825,87.522,66.786,-92.319,-1.6006,-1.4131,-0.0980,-3.775,9.900,-6.445
24.600492,87.733,66.895,-91.796,-1.4500,-1.8827,0.3854,-16.214,12.402,-6.090
24.617159,87.804,67.022,-91.057,-1.1262,-1.5673,0.5749,-36.356,17.395,-6.951
24.633826,87.815,67.106,-90.338,-1.2780,-0.6649,0.5550,-38.904,16.743,-4.498
24.650493,88.032,67.187,-89.793,-1.4238,0.4363,0.5292,-16.711,12.548,-4.509
24.667160,88.455,67.242,-89.348,-1.3208,0.1183,0.6291,0.486,10.398,-3.036
24.683827,88.919,67.263,-88.934,-1.3358,-0.4016,0.8422,4.774,9.562,-1.082
24.700494,89.311,67.298,-88.343,-0.4342,-1.0922,1.1719,-7.113,12.779,-1.999
24.717161,89.525,67.361,-87.658,-0.2252,-0.4876,1.0563,-22.619,14.758,-3.750
24.733828,89.806,67.421,-86.904,0.3945,-0.2038,0.8370,-23.527,16.744,-3.599
24.750495,90.115,67.487,-86.198,0.8193,-0.1186,0.3611,-23.039,17.096,-3.984
24.767162,90.366,67.549,-85.540,1.1097,0.1276,-0.2201,-23.090,15.611,-3.841
24.783829,90.449,67.588,-85.046,1.5458,0.3838,-0.5100,-22.198,11.080,-2.473
24.800496,90.335,67.616,-84.735,1.2262,0.6336,-0.5891,-23.260,6.610,-1.802
24.817163,90.303,67.609,-84.465,1.5812,0.3705,-0.2992,-17.205,6.142,0.294
24.833830,90.357,67.595,-84.255,1.4803,-0.1766,0.0975,-10.373,5.428,0.755
24.850497,90.392,67.578,-84.057,1.8599,0.1915,0.1059,-10.186,4.864,0.942
24.867164,90.306,67.582,-83.933,2.0994,0.4932,-0.0934,-11.182,2.310,-0.330
24.883831,90.147,67.595,-83.965,2.4182,0.8961,-0.1340,-6.760,-1.338,-0.849
24.900498,90.272,67.628,-83.861,2.5445,0.9288,-0.2815,1.767,2.123,-2.012
24.917165,90.538,67.723,-83.605,2.4685,0.0722,0.3194,1.928,5.453,-5.837
24.933832,90.794,67.820,-83.188,2.1564,0.5495,-0.0216,-8.043,9.230,-5.989
24.950499,91.122,67.985,-82.599,1.6714,0.6190,-0.2440,-13.390,12.966,-10.135
24.967166,91.324,68.247,-81.820,1.5728,-0.4962,-0.1566,-31.105,16.735,-16.171
24.983833,91.120,68.634,-80.704,1.5189,0.0679,-0.6276,-74.622,23.837,-23.804
25.000500,90.773,69.090,-79.317,0.7342,0.1589,-0.8670,-98.599,29.320,-27.881
25.017167,90.444,69.535,-77.832,-0.2024,0.4232,-0.2888,-103.292,30.931,-27.109
25.033834,90.292,69.890,-76.648,-1.5842,1.1950,0.6737,-75.876,24.237,-21.514
25.050501,90.280,70.096,-76.073,-2.9527,0.8116,1.3302,-33.296,11.497,-12.493
25.067168,90.318,70.089,-76.069,-3.3672,0.8644,1.2725,1.909,-0.136,0.396
25.083835,90.101,69.866,-76.866,-3.3858,1.5756,0.9584,31.870,-16.545,13.444
25.100502,89.885,69.581,-78.024,-2.7848,0.4796,0.6239,52.074,-24.274,17.044
25.117169,89.817,69.376,-79.116,-1.5065,0.8555,-0.3913,57.222,-23.192,12.226
25.133836,89.909,69.312,-80.055,0.7963,0.4355,-0.9220,58.270,-20.081,3.801
25.150503,90.063,69.375,-80.807,2.2860,-0.9011,-1.3417,51.378,-16.102,-3.778
25.167170,90.140,69.485,-81.539,2.0763,-0.7208,-1.0212,45.632,-15.626,-6.521
25.183837,90.160,69.630,-82.236,1.2181,0.0613,-0.3240,40.346,-14.848,-8.679
25.200504,90.245,69.642,-82.821,0.3225,0.4325,0.5188,37.900,-12.426,-0.678
25.217171,90.581,69.565,-83.474,-0.3069,0.5531,0.5417,56.781,-13.836,4.709
25.233838,91.082,69.474,-84.031,-0.3526,-0.8260,0.6148,61.322,-11.839,5.611
25.250505,91.553,69.430,-84.469,-0.4707,-0.8782,0.3512,52.658,-9.331,2.854
25.267172,92.006,69.405,-84.853,-0.3113,-0.2819,-0.0170,47.255,-7.746,1.769
25.283839,92.417,69.379,-85.321,-0.0661,0.6714,-0.5251,52.601,-10.656,1.945
25.300506,92.742,69.369,-85.752,0.1326,-0.2061,0.0648,43.059,-9.094,0.993
25.317173,93.009,69.358,-86.096,0.0748,-0.0101,0.2010,37.748,-8.348,1.068
25.333840,93.136,69.357,-86.614,-0.1305,-0.6324,0.2306,34.164,-10.253,0.635
25.350507,93.329,69.389,-87.095,-0.5979,-0.3564,0.2658,38.971,-10.638,-1.363
25.367174,93.476,69.413,-87.321,-0.6777,-0.7164,0.0413,21.281,-4.997,-1.158
25.383841,93.376,69.416,-87.298,-0.4085,-0.7485,-0.0860,-7.768,0.422,-0.203
25.400508,93.179,69.424,-87.424,-0.4100,-0.2070,-0.2426,-4.873,-2.841,-0.350
25.417175,93.069,69.449,-87.509,-0.3221,-1.1095,-0.0141,-1.815,-2.108,-1.440
25.433842,92.972,69.497,-87.597,-0.1206,-0.4577,-0.1853,-0.725,-2.266,-2.761
25.450509,92.985,69.554,-87.725,0.0158,-0.0865,-0.1606,7.761,-3.006,-3.315
25.467176,92.984,69.595,-87.796,0.0203,-0.3464,-0.0640,3.940,-1.840,-2.445
25.483843,92.948,69.620,-87.841,0.2769,0.1057,-0.1226,0.392,-1.241,-1.450
25.500510,92.931,69.641,-87.824,0.2689,-0.6315,0.0590,-2.034,0.104,-1.298
25.517177,92.912,69.655,-87.744,0.3541,-0.0067,-0.1549,-5.610,1.384,-0.978
25.533844,93.049,69.676,-87.588,0.4476,-0.1219,-0.2049,-0.511,2.957,-1.436
25.550511,93.143,69.687,-87.429,0.3376,-0.0560,-0.0362,-3.490,3.109,-0.846
25.567178,93.294,69.708,-87.324,0.4567,0.3037,-0.2169,3.378,1.798,-1.418
25.583845,93.561,69.727,-87.140,0.3950,-0.0397,-0.0658,4.838,3.821,-1.408
25.600512,93.726,69.756,-86.913,0.3987,0.2560,-0.0509,-3.227,4.482,-2.083
25.617179,93.843,69.780,-86.739,0.5042,0.6795,-0.0927,-3.140,3.421,-1.698
25.633846,94.042,69.800,-86.531,0.4682,0.5088,-0.0180,0.671,3.815,-1.518
25.650513,94.293,69.822,-86.306,0.2639,0.3480,-0.0278,2.919,4.110,-1.612
25.667180,94.586,69.840,-86.115,0.0269,0.2299,-0.0978,6.526,3.739,-1.420
25.683847,94.929,69.856,-85.881,0.1899,0.2243,-0.0074,7.570,4.428,-1.355
25.700514,95.195,69.871,-85.646,0.1729,0.0685,0.1155,2.914,4.450,-1.341
25.717181,95.395,69.873,-85.451,0.1414,0.0942,0.1729,1.542,3.550,-0.477
25.733848,95.572,69.860,-85.339,0.3405,0.1587,0.0011,3.833,2.319,0.520
25.750515,95.703,69.836,-85.203,0.4186,-0.1092,0.0299,0.372,2.624,1.149
25.767182,95.870,69.818,-85.040,0.4818,0.0017,0.1812,0.202,3.448,0.742
25.783849,96.046,69.798,-84.901,0.1742,0.0003,0.2114,3.736,2.370,0.903
25.800516,96.209,69.778,-84.760,0.2125,0.0042,0.1025,2.231,2.639,0.860
25.817183,96.318,69.758,-84.709,0.2768,0.2447,-0.1524,2.504,1.357,1.032
25.833850,96.530,69.738,-84.613,0.5092,0.3016,-0.2821,7.569,1.770,1.022
25.850517,96.803,69.723,-84.429,0.5439,0.1153,-0.1765,7.035,3.264,0.431
25.867184,96.967,69.701,-84.239,0.3794,0.0524,-0.0335,-0.801,3.806,0.848
25.883851,97.028,69.665,-84.137,0.3238,0.4115,-0.1406,-1.025,1.714,1.956
25.900518,97.089,69.617,-84.182,0.1868,0.2130,-0.2280,3.224,0.237,2.841
25.917185,97.147,69.579,-84.273,-0.0230,0.2214,-0.1087,8.854,-1.950,2.538
25.933852,97.212,69.553,-84.428,-0.2127,-0.1335,-0.0662,10.958,-2.679,1.903
25.950519,97.254,69.535,-84.603,-0.1777,0.0407,-0.3096,11.842,-3.575,1.564
25.967186,97.283,69.494,-84.900,-0.0028,0.0846,-0.3711,17.955,-5.973,3.165
25.983853,97.528,69.439,-85.490,-0.2877,0.4050,-0.2382,47.425,-11.976,4.897
26.000520,98.015,69.387,-86.378,-0.3914,0.1987,-0.0790,80.316,-18.867,5.672
26.017187,98.650,69.337,-87.471,-0.3188,-0.0587,-0.1183,99.147,-22.559,6.360
26.033854,99.211,69.307,-88.612,-0.1788,-0.6173,0.0470,97.732,-23.883,5.547
26.050521,99.358,69.273,-89.893,-0.6626,-0.6413,0.0939,80.605,-26.693,6.404
26.067188,99.354,69.196,-91.668,-0.4501,-0.1021,-0.4198,99.267,-36.739,10.704
26.083855,99.552,69.066,-93.733,-0.7670,-0.9609,-0.5109,127.607,-42.477,14.929
26.100522,99.527,68.900,-95.699,-1.6565,-2.6971,-0.1656,108.583,-40.303,16.892
26.117189,99.217,68.673,-97.555,-1.7410,-2.7783,-0.1195,85.176,-37.762,19.993
26.133856,98.987,68.341,-99.593,-2.0122,-3.0214,-0.1223,100.026,-41.346,26.687
26.150523,98.728,67.889,-101.922,-2.6840,-3.0446,-0.0915,114.219,-47.551,34.815
26.167190,98.290,67.268,-104.616,-3.5114,-3.1178,-0.0778,123.297,-55.740,45.893
26.183857,97.926,66.497,-107.508,-3.4135,-3.1767,-0.4503,137.930,-61.222,55.310
26.200524,97.385,65.575,-110.487,-3.7016,-4.2172,-0.2451,131.179,-64.917,64.334
26.217191,96.812,64.487,-113.529,-4.0208,-4.0632,0.0167,131.436,-68.747,74.134
26.233858,96.438,63.184,-116.749,-4.3515,-3.7186,0.6852,151.277,-75.985,87.307
26.250525,96.206,61.615,-120.135,-4.9334,-3.7651,1.2116,166.663,-83.651,103.683
26.267192,96.113,59.764,-123.562,-5.3832,-3.7026,1.5132,174.250,-88.675,120.961
26.283859,96.292,57.664,-126.998,-5.4709,-3.6292,1.3616,187.477,-93.390,136.531
26.300526,96.705,55.301,-130.451,-5.4873,-3.7788,1.4067,198.059,-98.265,153.503
26.317193,97.298,52.646,-133.822,-6.2151,-3.5658,2.7693,199.822,-99.412,172.263
26.333860,98.160,49.689,-137.030,-6.3960,-2.8369,4.1986,202.349,-96.597,191.666
